"","id","idgroup","sessionid","subject","period","condition","type","grouptype","contribution_id","roundprofit_id","sum_contribution_g","avg_contribution_g","avg_contr_g_others","strategic_ability","bin_strategic_ability","group_ability_cont","group_ability_cat","group_ability_bin","group_subjectid"
"1",173,"58","160329_1355",5,1,"RAND","CondCoop","grouptype_is_mixed",10,23.2,22,7.33333333333333,6,37.8944490019141,0,37.9564305897366,"MEDIUM","LOW_STRAT",1
"2",172,"58","160329_1355",4,1,"RAND","CondCoop","grouptype_is_mixed",12,21.2,22,7.33333333333333,5,62.6415094339623,1,37.9564305897366,"MEDIUM","LOW_STRAT",2
"3",159,"53","160324_1558",15,1,"RAND","Others","grouptype_is_mixed",10,22,20,6.66666666666667,5,44.4444444444444,1,35.6709811172746,"LOW","LOW_STRAT",1
"4",42,"11","160321_1405",18,1,"STRAT","CondCoop","grouptype_is_mixed",10,20.2,17,5.66666666666667,3.5,32.4369114877589,0,48.9642184557439,"HIGH","HIGH_STRAT",1
"5",70,"21","160321_1553",22,1,"STRAT","CondCoop","grouptype_is_mixed",20,34.8,58,19.3333333333333,19,44.9263721552878,1,43.0789825970549,"MEDIUM","HIGH_STRAT",1
"6",41,"13","160321_1405",17,1,"STRAT","Freerider","grouptype_is_mixed",5,25.8,18,6,6.5,42.2222222222222,0,40.8612680477087,"MEDIUM","LOW_STRAT",1
"7",21,"1","160321_1143",21,1,"STRAT","CondCoop","grouptype_is_mixed",20,17.4,29,9.66666666666667,4.5,69.5069033530572,1,63.2719701950471,"HIGH","HIGH_STRAT",1
"8",56,"21","160321_1553",8,1,"STRAT","Others","grouptype_is_mixed",20,34.8,58,19.3333333333333,19,39.8661311914324,0,43.0789825970549,"MEDIUM","HIGH_STRAT",2
"9",125,"43","160323_1557",5,1,"PREF","Freerider","Freerider",1,22.6,6,2,2.5,20,0,23.0750307503075,"LOW","LOW_STRAT",1
"10",12,"6","160321_1143",12,1,"STRAT","Freerider","grouptype_is_mixed",0,27.8,13,4.33333333333333,6.5,38.1459566074951,0,38.7332895025203,"MEDIUM","LOW_STRAT",1
"11",2,"5","160321_1143",2,1,"STRAT","UncondCoop","grouptype_is_mixed",20,30,50,16.6666666666667,15,41.5121630506246,0,42.4326101249178,"MEDIUM","HIGH_STRAT",1
"12",11,"5","160321_1143",11,1,"STRAT","CondCoop","grouptype_is_mixed",10,40,50,16.6666666666667,20,44.9967126890204,1,42.4326101249178,"MEDIUM","HIGH_STRAT",2
"13",174,"58","160329_1355",6,1,"RAND","Freerider","grouptype_is_mixed",0,33.2,22,7.33333333333333,11,13.3333333333333,0,37.9564305897366,"MEDIUM","LOW_STRAT",3
"14",23,"6","160321_1143",23,1,"STRAT","CondCoop","grouptype_is_mixed",3,24.8,13,4.33333333333333,5,39.0138067061144,0,38.7332895025203,"MEDIUM","LOW_STRAT",2
"15",116,"40","160323_1352",20,1,"PREF","CondCoop","grouptype_is_mixed",1,29.8,18,6,8.5,36.8960863697706,0,46.3967611336032,"MEDIUM","HIGH_STRAT",1
"16",138,"42","160323_1557",18,1,"PREF","Freerider","Freerider",5,33,30,10,12.5,21.0824108241082,0,53.9702063687304,"HIGH","HIGH_STRAT",1
"17",157,"53","160324_1558",13,1,"RAND","Freerider","grouptype_is_mixed",0,32,20,6.66666666666667,10,50.4555387460077,1,35.6709811172746,"LOW","LOW_STRAT",2
"18",38,"13","160321_1405",14,1,"STRAT","Others","grouptype_is_mixed",8,22.8,18,6,5,40.180790960452,0,40.8612680477087,"MEDIUM","LOW_STRAT",2
"19",44,"13","160321_1405",20,1,"STRAT","CondCoop","grouptype_is_mixed",5,25.8,18,6,6.5,40.180790960452,0,40.8612680477087,"MEDIUM","LOW_STRAT",3
"20",142,"48","160323_1557",22,1,"PREF","Others","Others",11,39.6,51,17,20,47.4538745387454,1,41.003143364767,"MEDIUM","LOW_STRAT",1
"21",8,"8","160321_1143",8,1,"STRAT","CondCoop","grouptype_is_mixed",20,23.4,39,13,9.5,29.1518737672584,0,25.2991452991453,"LOW","LOW_STRAT",1
"22",87,"32","160323_1155",15,1,"PREF","Freerider","grouptype_is_mixed",10,40,50,16.6666666666667,20,44.4444444444444,1,56.3299663299663,"HIGH","HIGH_STRAT",1
"23",57,"22","160321_1553",9,1,"STRAT","CondCoop","grouptype_is_mixed",10,22,20,6.66666666666667,5,25.4082998661312,0,30.2275769745649,"LOW","LOW_STRAT",1
"24",31,"11","160321_1405",7,1,"STRAT","Freerider","grouptype_is_mixed",5,25.2,17,5.66666666666667,6,59.2617702448211,1,48.9642184557439,"HIGH","HIGH_STRAT",2
"25",149,"50","160324_1558",5,1,"RAND","Freerider","grouptype_is_mixed",0,44,40,13.3333333333333,20,38.2450832072617,0,44.0376533871239,"MEDIUM","HIGH_STRAT",1
"26",152,"51","160324_1558",8,1,"RAND","CondCoop","grouptype_is_mixed",0,38,30,10,15,44.5990922844176,1,34.9918753852188,"LOW","LOW_STRAT",1
"27",177,"59","160329_1355",9,1,"RAND","Freerider","grouptype_is_mixed",0,35,25,8.33333333333333,12.5,12.5731473885699,0,18.6680035244432,"LOW","LOW_STRAT",1
"28",162,"54","160324_1558",18,1,"RAND","Others","grouptype_is_mixed",10,22,20,6.66666666666667,5,72.1129601613717,1,41.6271642292822,"MEDIUM","LOW_STRAT",1
"29",37,"12","160321_1405",13,1,"STRAT","Freerider","grouptype_is_mixed",12,24.2,27,9,7.5,44.1280602636535,1,38.4406779661017,"MEDIUM","LOW_STRAT",1
"30",145,"49","160324_1558",1,1,"RAND","Freerider","grouptype_is_mixed",0,32,20,6.66666666666667,10,59.468818288788,1,40.3440354121141,"MEDIUM","LOW_STRAT",1
"31",45,"15","160321_1405",21,1,"STRAT","CondCoop","grouptype_is_mixed",20,13.2,22,7.33333333333333,1,31.1111111111111,0,30.7746390458255,"LOW","LOW_STRAT",1
"32",147,"49","160324_1558",3,1,"RAND","CondCoop","grouptype_is_mixed",20,12,20,6.66666666666667,0,49.4503277861826,1,40.3440354121141,"MEDIUM","LOW_STRAT",2
"33",35,"15","160321_1405",11,1,"STRAT","Freerider","grouptype_is_mixed",0,33.2,22,7.33333333333333,11,30.7947269303201,0,30.7746390458255,"LOW","LOW_STRAT",2
"34",105,"38","160323_1352",9,1,"PREF","Others","Others",10,28,30,10,10,40.0539811066127,0,48.349077822762,"MEDIUM","HIGH_STRAT",1
"35",185,"62","160329_1355",17,1,"RAND","CondCoop","grouptype_is_mixed",10,31,35,11.6666666666667,12.5,33.5283930361863,0,39.3242791602103,"MEDIUM","LOW_STRAT",1
"36",40,"15","160321_1405",16,1,"STRAT","Freerider","grouptype_is_mixed",2,31.2,22,7.33333333333333,10,30.4180790960452,0,30.7746390458255,"LOW","LOW_STRAT",3
"37",163,"55","160324_1558",19,1,"RAND","CondCoop","grouptype_is_mixed",5,28.2,22,7.33333333333333,8.5,17.7777777777778,0,36.097943631983,"LOW","LOW_STRAT",1
"38",68,"24","160321_1553",20,1,"STRAT","CondCoop","grouptype_is_mixed",10,28,30,10,10,0,0,4.44444444444444,"LOW","LOW_STRAT",1
"39",10,"5","160321_1143",10,1,"STRAT","CondCoop","grouptype_is_mixed",20,30,50,16.6666666666667,15,40.7889546351085,0,42.4326101249178,"MEDIUM","HIGH_STRAT",3
"40",63,"24","160321_1553",15,1,"STRAT","Others","grouptype_is_mixed",0,38,30,10,15,6.66666666666667,0,4.44444444444444,"LOW","LOW_STRAT",2
"41",160,"54","160324_1558",16,1,"RAND","Freerider","grouptype_is_mixed",0,32,20,6.66666666666667,10,21.19011598588,0,41.6271642292822,"MEDIUM","LOW_STRAT",2
"42",97,"40","160323_1352",1,1,"PREF","CondCoop","grouptype_is_mixed",2,28.8,18,6,8,44.0665766981556,1,46.3967611336032,"MEDIUM","HIGH_STRAT",2
"43",114,"38","160323_1352",18,1,"PREF","Others","Others",0,38,30,10,15,44.3364822312191,1,48.349077822762,"MEDIUM","HIGH_STRAT",2
"44",176,"59","160329_1355",8,1,"RAND","Others","grouptype_is_mixed",20,15,25,8.33333333333333,2.5,21.7154315923799,0,18.6680035244432,"LOW","LOW_STRAT",2
"45",9,"8","160321_1143",9,1,"STRAT","UncondCoop","grouptype_is_mixed",15,28.4,39,13,12,26.6666666666667,0,25.2991452991453,"LOW","LOW_STRAT",2
"46",50,"23","160321_1553",2,1,"STRAT","CondCoop","grouptype_is_mixed",5,34.8,33,11,14,20.3212851405622,0,22.9808121374386,"LOW","LOW_STRAT",1
"47",111,"39","160323_1352",15,1,"PREF","Others","Others",20,15.6,26,8.66666666666667,3,76.0053981106613,1,55.1896836107362,"HIGH","HIGH_STRAT",1
"48",91,"25","160323_1155",19,1,"PREF","Freerider","Freerider",0,20.6,1,0.333333333333333,0.5,33.3333333333333,0,33.4343434343434,"LOW","LOW_STRAT",1
"49",67,"21","160321_1553",19,1,"STRAT","Freerider","grouptype_is_mixed",18,36.8,58,19.3333333333333,20,44.4444444444444,1,43.0789825970549,"MEDIUM","HIGH_STRAT",3
"50",151,"51","160324_1558",7,1,"RAND","Others","grouptype_is_mixed",20,18,30,10,5,6.66666666666667,0,34.9918753852188,"LOW","LOW_STRAT",2
"51",58,"23","160321_1553",10,1,"STRAT","Others","grouptype_is_mixed",8,31.8,33,11,12.5,24.1767068273092,0,22.9808121374386,"LOW","LOW_STRAT",2
"52",22,"7","160321_1143",22,1,"STRAT","Others","grouptype_is_mixed",11,27.6,31,10.3333333333333,10,31.1242603550296,0,33.5218058294981,"LOW","LOW_STRAT",1
"53",158,"53","160324_1558",14,1,"RAND","Freerider","grouptype_is_mixed",10,22,20,6.66666666666667,5,12.1129601613717,0,35.6709811172746,"LOW","LOW_STRAT",3
"54",85,"31","160323_1155",13,1,"PREF","Others","Others",8,31.8,33,11,12.5,55.3535353535353,1,48.8552188552189,"MEDIUM","HIGH_STRAT",1
"55",148,"50","160324_1558",4,1,"RAND","CondCoop","grouptype_is_mixed",20,24,40,13.3333333333333,10,39.3444276348966,0,44.0376533871239,"MEDIUM","HIGH_STRAT",2
"56",6,"8","160321_1143",6,1,"STRAT","Freerider","grouptype_is_mixed",4,39.4,39,13,17.5,20.0788954635109,0,25.2991452991453,"LOW","LOW_STRAT",3
"57",183,"61","160329_1355",15,1,"RAND","CondCoop","grouptype_is_mixed",20,24,40,13.3333333333333,10,60.6726825266612,1,48.8171846990551,"MEDIUM","HIGH_STRAT",1
"58",121,"42","160323_1557",1,1,"PREF","Freerider","Freerider",20,18,30,10,5,77.0561705617056,1,53.9702063687304,"HIGH","HIGH_STRAT",2
"59",104,"35","160323_1352",8,1,"PREF","Freerider","Freerider",0,21.2,2,0.666666666666667,1,55.4475933423302,1,35.6125356125356,"LOW","LOW_STRAT",1
"60",181,"61","160329_1355",13,1,"RAND","Freerider","grouptype_is_mixed",0,44,40,13.3333333333333,20,55.1946039558837,1,48.8171846990551,"MEDIUM","HIGH_STRAT",2
"61",100,"35","160323_1352",4,1,"PREF","Freerider","Freerider",2,19.2,2,0.666666666666667,0,27.719298245614,0,35.6125356125356,"LOW","LOW_STRAT",2
"62",108,"35","160323_1352",12,1,"PREF","Freerider","Freerider",0,21.2,2,0.666666666666667,1,23.6707152496626,0,35.6125356125356,"LOW","LOW_STRAT",3
"63",80,"25","160323_1155",8,1,"PREF","Freerider","Freerider",1,19.6,1,0.333333333333333,0,30.3030303030303,0,33.4343434343434,"LOW","LOW_STRAT",2
"64",30,"11","160321_1405",6,1,"STRAT","UncondCoop","grouptype_is_mixed",2,28.2,17,5.66666666666667,7.5,55.1939736346516,1,48.9642184557439,"HIGH","HIGH_STRAT",3
"65",60,"22","160321_1553",12,1,"STRAT","Freerider","grouptype_is_mixed",0,32,20,6.66666666666667,10,25.4082998661312,0,30.2275769745649,"LOW","LOW_STRAT",2
"66",88,"32","160323_1155",16,1,"PREF","UncondCoop","grouptype_is_mixed",20,30,50,16.6666666666667,15,43.3333333333333,0,56.3299663299663,"HIGH","HIGH_STRAT",2
"67",15,"7","160321_1143",15,1,"STRAT","CondCoop","grouptype_is_mixed",0,38.6,31,10.3333333333333,15.5,32.3734385272847,0,33.5218058294981,"LOW","LOW_STRAT",2
"68",107,"39","160323_1352",11,1,"PREF","Others","Others",5,30.6,26,8.66666666666667,10.5,53.9901034637877,1,55.1896836107362,"HIGH","HIGH_STRAT",2
"69",79,"31","160323_1155",7,1,"PREF","Others","Others",10,29.8,33,11,11.5,23.2323232323232,0,48.8552188552189,"MEDIUM","HIGH_STRAT",2
"70",39,"14","160321_1405",15,1,"STRAT","CondCoop","grouptype_is_mixed",10,20.2,17,5.66666666666667,3.5,34.8173258003767,0,35.1964846202134,"LOW","LOW_STRAT",1
"71",119,"33","160323_1352",23,1,"PREF","Freerider","Freerider",0,26,10,3.33333333333333,5,6.66666666666667,0,26.6276803118908,"LOW","LOW_STRAT",1
"72",47,"14","160321_1405",23,1,"STRAT","Freerider","grouptype_is_mixed",5,25.2,17,5.66666666666667,6,31.5630885122411,0,35.1964846202134,"LOW","LOW_STRAT",2
"73",120,"33","160323_1352",24,1,"PREF","Freerider","Freerider",0,26,10,3.33333333333333,5,47.9262258209627,1,26.6276803118908,"LOW","LOW_STRAT",2
"74",122,"43","160323_1557",2,1,"PREF","Freerider","Freerider",5,18.6,6,2,0.5,35.8917589175892,0,23.0750307503075,"LOW","LOW_STRAT",2
"75",150,"50","160324_1558",6,1,"RAND","CondCoop","grouptype_is_mixed",20,24,40,13.3333333333333,10,54.5234493192133,1,44.0376533871239,"MEDIUM","HIGH_STRAT",3
"76",168,"56","160324_1558",24,1,"RAND","CondCoop","grouptype_is_mixed",20,22.8,38,12.6666666666667,9,72.5836275004202,1,56.0150165293887,"HIGH","HIGH_STRAT",1
"77",55,"23","160321_1553",7,1,"STRAT","Freerider","grouptype_is_mixed",20,19.8,33,11,6.5,24.4444444444444,0,22.9808121374386,"LOW","LOW_STRAT",3
"78",112,"33","160323_1352",16,1,"PREF","Freerider","Freerider",10,16,10,3.33333333333333,0,25.2901484480432,0,26.6276803118908,"LOW","LOW_STRAT",3
"79",182,"61","160329_1355",14,1,"RAND","CondCoop","grouptype_is_mixed",20,24,40,13.3333333333333,10,30.5842676146204,0,48.8171846990551,"MEDIUM","HIGH_STRAT",3
"80",65,"22","160321_1553",17,1,"STRAT","Others","grouptype_is_mixed",10,22,20,6.66666666666667,5,39.8661311914324,0,30.2275769745649,"LOW","LOW_STRAT",3
"81",24,"1","160321_1143",24,1,"STRAT","CondCoop","grouptype_is_mixed",5,32.4,29,9.66666666666667,12,38.2577251808021,0,63.2719701950471,"HIGH","HIGH_STRAT",2
"82",134,"48","160323_1557",14,1,"PREF","Others","Others",20,30.6,51,17,15.5,35.5555555555556,0,41.003143364767,"MEDIUM","LOW_STRAT",2
"83",144,"43","160323_1557",24,1,"PREF","Freerider","Freerider",0,23.6,6,2,3,13.3333333333333,0,23.0750307503075,"LOW","LOW_STRAT",3
"84",143,"48","160323_1557",23,1,"PREF","Others","Others",20,30.6,51,17,15.5,40,0,41.003143364767,"MEDIUM","LOW_STRAT",3
"85",25,"14","160321_1405",1,1,"STRAT","Others","grouptype_is_mixed",2,28.2,17,5.66666666666667,7.5,39.2090395480226,0,35.1964846202134,"LOW","LOW_STRAT",3
"86",153,"51","160324_1558",9,1,"RAND","CondCoop","grouptype_is_mixed",10,28,30,10,10,53.7098672045722,1,34.9918753852188,"LOW","LOW_STRAT",3
"87",165,"55","160324_1558",21,1,"RAND","Freerider","grouptype_is_mixed",10,23.2,22,7.33333333333333,6,43.2879475542108,0,36.097943631983,"LOW","LOW_STRAT",2
"88",129,"42","160323_1557",9,1,"PREF","Freerider","Freerider",5,33,30,10,12.5,63.7720377203772,1,53.9702063687304,"HIGH","HIGH_STRAT",3
"89",161,"54","160324_1558",17,1,"RAND","CondCoop","grouptype_is_mixed",10,22,20,6.66666666666667,5,31.5784165405951,0,41.6271642292822,"MEDIUM","LOW_STRAT",3
"90",113,"38","160323_1352",17,1,"PREF","Others","Others",20,18,30,10,5,60.6567701304543,1,48.349077822762,"MEDIUM","HIGH_STRAT",3
"91",146,"49","160324_1558",2,1,"RAND","Others","grouptype_is_mixed",0,32,20,6.66666666666667,10,12.1129601613717,0,40.3440354121141,"MEDIUM","LOW_STRAT",3
"92",89,"32","160323_1155",17,1,"PREF","Freerider","grouptype_is_mixed",20,30,50,16.6666666666667,15,81.2121212121212,1,56.3299663299663,"HIGH","HIGH_STRAT",3
"93",20,"7","160321_1143",20,1,"STRAT","CondCoop","grouptype_is_mixed",20,18.6,31,10.3333333333333,5.5,37.0677186061801,0,33.5218058294981,"LOW","LOW_STRAT",3
"94",43,"12","160321_1405",19,1,"STRAT","CondCoop","grouptype_is_mixed",15,21.2,27,9,6,24.1280602636535,0,38.4406779661017,"MEDIUM","LOW_STRAT",2
"95",175,"59","160329_1355",7,1,"RAND","Others","grouptype_is_mixed",5,30,25,8.33333333333333,10,21.7154315923799,0,18.6680035244432,"LOW","LOW_STRAT",3
"96",167,"56","160324_1558",23,1,"RAND","Others","grouptype_is_mixed",8,34.8,38,12.6666666666667,15,52.6777609682299,1,56.0150165293887,"HIGH","HIGH_STRAT",2
"97",166,"56","160324_1558",22,1,"RAND","CondCoop","grouptype_is_mixed",10,32.8,38,12.6666666666667,14,42.7836611195159,0,56.0150165293887,"HIGH","HIGH_STRAT",3
"98",184,"62","160329_1355",16,1,"RAND","Freerider","grouptype_is_mixed",15,26,35,11.6666666666667,10,55.5555555555556,1,39.3242791602103,"MEDIUM","LOW_STRAT",2
"99",95,"31","160323_1155",23,1,"PREF","Others","Others",15,24.8,33,11,9,67.979797979798,1,48.8552188552189,"MEDIUM","HIGH_STRAT",3
"100",14,"1","160321_1143",14,1,"STRAT","Freerider","grouptype_is_mixed",4,33.4,29,9.66666666666667,12.5,82.0512820512821,1,63.2719701950471,"HIGH","HIGH_STRAT",3
"101",164,"55","160324_1558",20,1,"RAND","Others","grouptype_is_mixed",7,26.2,22,7.33333333333333,7.5,47.2281055639603,1,36.097943631983,"LOW","LOW_STRAT",3
"102",54,"24","160321_1553",6,1,"STRAT","Others","grouptype_is_mixed",20,18,30,10,5,6.66666666666667,0,4.44444444444444,"LOW","LOW_STRAT",3
"103",186,"62","160329_1355",18,1,"RAND","CondCoop","grouptype_is_mixed",10,31,35,11.6666666666667,12.5,28.8888888888889,0,39.3242791602103,"MEDIUM","LOW_STRAT",3
"104",18,"6","160321_1143",18,1,"STRAT","Freerider","grouptype_is_mixed",10,17.8,13,4.33333333333333,1.5,39.0401051939514,0,38.7332895025203,"MEDIUM","LOW_STRAT",3
"105",84,"25","160323_1155",12,1,"PREF","Freerider","Freerider",0,20.6,1,0.333333333333333,0.5,36.6666666666667,0,33.4343434343434,"LOW","LOW_STRAT",3
"106",101,"39","160323_1352",5,1,"PREF","Others","Others",1,34.6,26,8.66666666666667,12.5,35.5735492577598,0,55.1896836107362,"HIGH","HIGH_STRAT",3
"107",36,"12","160321_1405",12,1,"STRAT","Freerider","grouptype_is_mixed",0,36.2,27,9,13.5,47.0659133709981,1,38.4406779661017,"MEDIUM","LOW_STRAT",3
"108",98,"40","160323_1352",2,1,"PREF","Freerider","grouptype_is_mixed",15,15.8,18,6,1.5,58.2276203328835,1,46.3967611336032,"MEDIUM","HIGH_STRAT",3
"109",79,"31","160323_1155",7,2,"PREF","Others","Others",15,31.4,44,14.6666666666667,14.5,23.2323232323232,0,48.8552188552189,"MEDIUM","HIGH_STRAT",2
"110",149,"50","160324_1558",5,2,"RAND","Freerider","grouptype_is_mixed",0,38,30,10,15,38.2450832072617,0,44.0376533871239,"MEDIUM","HIGH_STRAT",1
"111",120,"33","160323_1352",24,2,"PREF","Freerider","Freerider",5,22.8,13,4.33333333333333,4,47.9262258209627,1,26.6276803118908,"LOW","LOW_STRAT",2
"112",84,"25","160323_1155",12,2,"PREF","Freerider","Freerider",5,18,5,1.66666666666667,0,36.6666666666667,0,33.4343434343434,"LOW","LOW_STRAT",3
"113",143,"48","160323_1557",23,2,"PREF","Others","Others",15,38,55,18.3333333333333,20,40,0,41.003143364767,"MEDIUM","LOW_STRAT",3
"114",184,"62","160329_1355",16,2,"RAND","Freerider","grouptype_is_mixed",12,28.4,34,11.3333333333333,11,55.5555555555556,1,39.3242791602103,"MEDIUM","LOW_STRAT",2
"115",57,"22","160321_1553",9,2,"STRAT","CondCoop","grouptype_is_mixed",10,22,20,6.66666666666667,5,25.4082998661312,0,30.2275769745649,"LOW","LOW_STRAT",1
"116",121,"42","160323_1557",1,2,"PREF","Freerider","Freerider",20,24,40,13.3333333333333,10,77.0561705617056,1,53.9702063687304,"HIGH","HIGH_STRAT",2
"117",157,"53","160324_1558",13,2,"RAND","Freerider","grouptype_is_mixed",0,26,10,3.33333333333333,5,50.4555387460077,1,35.6709811172746,"LOW","LOW_STRAT",2
"118",167,"56","160324_1558",23,2,"RAND","Others","grouptype_is_mixed",12,33.2,42,14,15,52.6777609682299,1,56.0150165293887,"HIGH","HIGH_STRAT",2
"119",88,"32","160323_1155",16,2,"PREF","UncondCoop","grouptype_is_mixed",15,38,55,18.3333333333333,20,43.3333333333333,0,56.3299663299663,"HIGH","HIGH_STRAT",2
"120",112,"33","160323_1352",16,2,"PREF","Freerider","Freerider",8,19.8,13,4.33333333333333,2.5,25.2901484480432,0,26.6276803118908,"LOW","LOW_STRAT",3
"121",6,"8","160321_1143",6,2,"STRAT","Freerider","grouptype_is_mixed",6,38.6,41,13.6666666666667,17.5,20.0788954635109,0,25.2991452991453,"LOW","LOW_STRAT",3
"122",20,"7","160321_1143",20,2,"STRAT","CondCoop","grouptype_is_mixed",20,19.8,33,11,6.5,37.0677186061801,0,33.5218058294981,"LOW","LOW_STRAT",3
"123",40,"15","160321_1405",16,2,"STRAT","Freerider","grouptype_is_mixed",2,31.2,22,7.33333333333333,10,30.4180790960452,0,30.7746390458255,"LOW","LOW_STRAT",3
"124",11,"5","160321_1143",11,2,"STRAT","CondCoop","grouptype_is_mixed",20,33,55,18.3333333333333,17.5,44.9967126890204,1,42.4326101249178,"MEDIUM","HIGH_STRAT",2
"125",158,"53","160324_1558",14,2,"RAND","Freerider","grouptype_is_mixed",5,21,10,3.33333333333333,2.5,12.1129601613717,0,35.6709811172746,"LOW","LOW_STRAT",3
"126",50,"23","160321_1553",2,2,"STRAT","CondCoop","grouptype_is_mixed",10,37,45,15,17.5,20.3212851405622,0,22.9808121374386,"LOW","LOW_STRAT",1
"127",65,"22","160321_1553",17,2,"STRAT","Others","grouptype_is_mixed",10,22,20,6.66666666666667,5,39.8661311914324,0,30.2275769745649,"LOW","LOW_STRAT",3
"128",63,"24","160321_1553",15,2,"STRAT","Others","grouptype_is_mixed",0,38,30,10,15,6.66666666666667,0,4.44444444444444,"LOW","LOW_STRAT",2
"129",39,"14","160321_1405",15,2,"STRAT","CondCoop","grouptype_is_mixed",3,23,10,3.33333333333333,3.5,34.8173258003767,0,35.1964846202134,"LOW","LOW_STRAT",1
"130",30,"11","160321_1405",6,2,"STRAT","UncondCoop","grouptype_is_mixed",2,23.4,9,3,3.5,55.1939736346516,1,48.9642184557439,"HIGH","HIGH_STRAT",3
"131",150,"50","160324_1558",6,2,"RAND","CondCoop","grouptype_is_mixed",20,18,30,10,5,54.5234493192133,1,44.0376533871239,"MEDIUM","HIGH_STRAT",3
"132",10,"5","160321_1143",10,2,"STRAT","CondCoop","grouptype_is_mixed",15,38,55,18.3333333333333,20,40.7889546351085,0,42.4326101249178,"MEDIUM","HIGH_STRAT",3
"133",18,"6","160321_1143",18,2,"STRAT","Freerider","grouptype_is_mixed",4,23.8,13,4.33333333333333,4.5,39.0401051939514,0,38.7332895025203,"MEDIUM","LOW_STRAT",3
"134",105,"38","160323_1352",9,2,"PREF","Others","Others",10,28,30,10,10,40.0539811066127,0,48.349077822762,"MEDIUM","HIGH_STRAT",1
"135",104,"35","160323_1352",8,2,"PREF","Freerider","Freerider",0,23,5,1.66666666666667,2.5,55.4475933423302,1,35.6125356125356,"LOW","LOW_STRAT",1
"136",60,"22","160321_1553",12,2,"STRAT","Freerider","grouptype_is_mixed",0,32,20,6.66666666666667,10,25.4082998661312,0,30.2275769745649,"LOW","LOW_STRAT",2
"137",41,"13","160321_1405",17,2,"STRAT","Freerider","grouptype_is_mixed",10,22.6,21,7,5.5,42.2222222222222,0,40.8612680477087,"MEDIUM","LOW_STRAT",1
"138",142,"48","160323_1557",22,2,"PREF","Others","Others",20,33,55,18.3333333333333,17.5,47.4538745387454,1,41.003143364767,"MEDIUM","LOW_STRAT",1
"139",87,"32","160323_1155",15,2,"PREF","Freerider","grouptype_is_mixed",20,33,55,18.3333333333333,17.5,44.4444444444444,1,56.3299663299663,"HIGH","HIGH_STRAT",1
"140",114,"38","160323_1352",18,2,"PREF","Others","Others",0,38,30,10,15,44.3364822312191,1,48.349077822762,"MEDIUM","HIGH_STRAT",2
"141",151,"51","160324_1558",7,2,"RAND","Others","grouptype_is_mixed",20,27,45,15,12.5,6.66666666666667,0,34.9918753852188,"LOW","LOW_STRAT",2
"142",122,"43","160323_1557",2,2,"PREF","Freerider","Freerider",0,21.2,2,0.666666666666667,1,35.8917589175892,0,23.0750307503075,"LOW","LOW_STRAT",2
"143",108,"35","160323_1352",12,2,"PREF","Freerider","Freerider",0,23,5,1.66666666666667,2.5,23.6707152496626,0,35.6125356125356,"LOW","LOW_STRAT",3
"144",54,"24","160321_1553",6,2,"STRAT","Others","grouptype_is_mixed",20,18,30,10,5,6.66666666666667,0,4.44444444444444,"LOW","LOW_STRAT",3
"145",85,"31","160323_1155",13,2,"PREF","Others","Others",12,34.4,44,14.6666666666667,16,55.3535353535353,1,48.8552188552189,"MEDIUM","HIGH_STRAT",1
"146",55,"23","160321_1553",7,2,"STRAT","Freerider","grouptype_is_mixed",20,27,45,15,12.5,24.4444444444444,0,22.9808121374386,"LOW","LOW_STRAT",3
"147",23,"6","160321_1143",23,2,"STRAT","CondCoop","grouptype_is_mixed",9,18.8,13,4.33333333333333,2,39.0138067061144,0,38.7332895025203,"MEDIUM","LOW_STRAT",2
"148",12,"6","160321_1143",12,2,"STRAT","Freerider","grouptype_is_mixed",0,27.8,13,4.33333333333333,6.5,38.1459566074951,0,38.7332895025203,"MEDIUM","LOW_STRAT",1
"149",161,"54","160324_1558",17,2,"RAND","CondCoop","grouptype_is_mixed",10,25,25,8.33333333333333,7.5,31.5784165405951,0,41.6271642292822,"MEDIUM","LOW_STRAT",3
"150",37,"12","160321_1405",13,2,"STRAT","Freerider","grouptype_is_mixed",10,16,10,3.33333333333333,0,44.1280602636535,1,38.4406779661017,"MEDIUM","LOW_STRAT",1
"151",101,"39","160323_1352",5,2,"PREF","Others","Others",0,30.2,17,5.66666666666667,8.5,35.5735492577598,0,55.1896836107362,"HIGH","HIGH_STRAT",3
"152",147,"49","160324_1558",3,2,"RAND","CondCoop","grouptype_is_mixed",20,12,20,6.66666666666667,0,49.4503277861826,1,40.3440354121141,"MEDIUM","LOW_STRAT",2
"153",159,"53","160324_1558",15,2,"RAND","Others","grouptype_is_mixed",5,21,10,3.33333333333333,2.5,44.4444444444444,1,35.6709811172746,"LOW","LOW_STRAT",1
"154",36,"12","160321_1405",12,2,"STRAT","Freerider","grouptype_is_mixed",0,26,10,3.33333333333333,5,47.0659133709981,1,38.4406779661017,"MEDIUM","LOW_STRAT",3
"155",9,"8","160321_1143",9,2,"STRAT","UncondCoop","grouptype_is_mixed",15,29.6,41,13.6666666666667,13,26.6666666666667,0,25.2991452991453,"LOW","LOW_STRAT",2
"156",113,"38","160323_1352",17,2,"PREF","Others","Others",20,18,30,10,5,60.6567701304543,1,48.349077822762,"MEDIUM","HIGH_STRAT",3
"157",100,"35","160323_1352",4,2,"PREF","Freerider","Freerider",5,18,5,1.66666666666667,0,27.719298245614,0,35.6125356125356,"LOW","LOW_STRAT",2
"158",14,"1","160321_1143",14,2,"STRAT","Freerider","grouptype_is_mixed",8,27.6,26,8.66666666666667,9,82.0512820512821,1,63.2719701950471,"HIGH","HIGH_STRAT",3
"159",107,"39","160323_1352",11,2,"PREF","Others","Others",7,23.2,17,5.66666666666667,5,53.9901034637877,1,55.1896836107362,"HIGH","HIGH_STRAT",2
"160",174,"58","160329_1355",6,2,"RAND","Freerider","grouptype_is_mixed",0,30.2,17,5.66666666666667,8.5,13.3333333333333,0,37.9564305897366,"MEDIUM","LOW_STRAT",3
"161",148,"50","160324_1558",4,2,"RAND","CondCoop","grouptype_is_mixed",10,28,30,10,10,39.3444276348966,0,44.0376533871239,"MEDIUM","HIGH_STRAT",2
"162",164,"55","160324_1558",20,2,"RAND","Others","grouptype_is_mixed",12,27.2,32,10.6666666666667,10,47.2281055639603,1,36.097943631983,"LOW","LOW_STRAT",3
"163",116,"40","160323_1352",20,2,"PREF","CondCoop","grouptype_is_mixed",0,27.2,12,4,6,36.8960863697706,0,46.3967611336032,"MEDIUM","HIGH_STRAT",1
"164",89,"32","160323_1155",17,2,"PREF","Freerider","grouptype_is_mixed",20,33,55,18.3333333333333,17.5,81.2121212121212,1,56.3299663299663,"HIGH","HIGH_STRAT",3
"165",166,"56","160324_1558",22,2,"RAND","CondCoop","grouptype_is_mixed",10,35.2,42,14,16,42.7836611195159,0,56.0150165293887,"HIGH","HIGH_STRAT",3
"166",25,"14","160321_1405",1,2,"STRAT","Others","grouptype_is_mixed",0,26,10,3.33333333333333,5,39.2090395480226,0,35.1964846202134,"LOW","LOW_STRAT",3
"167",138,"42","160323_1557",18,2,"PREF","Freerider","Freerider",10,34,40,13.3333333333333,15,21.0824108241082,0,53.9702063687304,"HIGH","HIGH_STRAT",1
"168",2,"5","160321_1143",2,2,"STRAT","UncondCoop","grouptype_is_mixed",20,33,55,18.3333333333333,17.5,41.5121630506246,0,42.4326101249178,"MEDIUM","HIGH_STRAT",1
"169",31,"11","160321_1405",7,2,"STRAT","Freerider","grouptype_is_mixed",0,25.4,9,3,4.5,59.2617702448211,1,48.9642184557439,"HIGH","HIGH_STRAT",2
"170",129,"42","160323_1557",9,2,"PREF","Freerider","Freerider",10,34,40,13.3333333333333,15,63.7720377203772,1,53.9702063687304,"HIGH","HIGH_STRAT",3
"171",185,"62","160329_1355",17,2,"RAND","CondCoop","grouptype_is_mixed",12,28.4,34,11.3333333333333,11,33.5283930361863,0,39.3242791602103,"MEDIUM","LOW_STRAT",1
"172",134,"48","160323_1557",14,2,"PREF","Others","Others",20,33,55,18.3333333333333,17.5,35.5555555555556,0,41.003143364767,"MEDIUM","LOW_STRAT",2
"173",80,"25","160323_1155",8,2,"PREF","Freerider","Freerider",0,23,5,1.66666666666667,2.5,30.3030303030303,0,33.4343434343434,"LOW","LOW_STRAT",2
"174",67,"21","160321_1553",19,2,"STRAT","Freerider","grouptype_is_mixed",15,26,35,11.6666666666667,10,44.4444444444444,1,43.0789825970549,"MEDIUM","HIGH_STRAT",3
"175",160,"54","160324_1558",16,2,"RAND","Freerider","grouptype_is_mixed",10,25,25,8.33333333333333,7.5,21.19011598588,0,41.6271642292822,"MEDIUM","LOW_STRAT",2
"176",153,"51","160324_1558",9,2,"RAND","CondCoop","grouptype_is_mixed",20,27,45,15,12.5,53.7098672045722,1,34.9918753852188,"LOW","LOW_STRAT",3
"177",91,"25","160323_1155",19,2,"PREF","Freerider","Freerider",0,23,5,1.66666666666667,2.5,33.3333333333333,0,33.4343434343434,"LOW","LOW_STRAT",1
"178",44,"13","160321_1405",20,2,"STRAT","CondCoop","grouptype_is_mixed",6,26.6,21,7,7.5,40.180790960452,0,40.8612680477087,"MEDIUM","LOW_STRAT",3
"179",183,"61","160329_1355",15,2,"RAND","CondCoop","grouptype_is_mixed",18,24.8,38,12.6666666666667,10,60.6726825266612,1,48.8171846990551,"MEDIUM","HIGH_STRAT",1
"180",47,"14","160321_1405",23,2,"STRAT","Freerider","grouptype_is_mixed",7,19,10,3.33333333333333,1.5,31.5630885122411,0,35.1964846202134,"LOW","LOW_STRAT",2
"181",15,"7","160321_1143",15,2,"STRAT","CondCoop","grouptype_is_mixed",5,34.8,33,11,14,32.3734385272847,0,33.5218058294981,"LOW","LOW_STRAT",2
"182",176,"59","160329_1355",8,2,"RAND","Others","grouptype_is_mixed",20,18,30,10,5,21.7154315923799,0,18.6680035244432,"LOW","LOW_STRAT",2
"183",35,"15","160321_1405",11,2,"STRAT","Freerider","grouptype_is_mixed",0,33.2,22,7.33333333333333,11,30.7947269303201,0,30.7746390458255,"LOW","LOW_STRAT",2
"184",38,"13","160321_1405",14,2,"STRAT","Others","grouptype_is_mixed",5,27.6,21,7,8,40.180790960452,0,40.8612680477087,"MEDIUM","LOW_STRAT",2
"185",163,"55","160324_1558",19,2,"RAND","CondCoop","grouptype_is_mixed",10,29.2,32,10.6666666666667,11,17.7777777777778,0,36.097943631983,"LOW","LOW_STRAT",1
"186",111,"39","160323_1352",15,2,"PREF","Others","Others",10,20.2,17,5.66666666666667,3.5,76.0053981106613,1,55.1896836107362,"HIGH","HIGH_STRAT",1
"187",144,"43","160323_1557",24,2,"PREF","Freerider","Freerider",1,20.2,2,0.666666666666667,0.5,13.3333333333333,0,23.0750307503075,"LOW","LOW_STRAT",3
"188",146,"49","160324_1558",2,2,"RAND","Others","grouptype_is_mixed",0,32,20,6.66666666666667,10,12.1129601613717,0,40.3440354121141,"MEDIUM","LOW_STRAT",3
"189",70,"21","160321_1553",22,2,"STRAT","CondCoop","grouptype_is_mixed",18,23,35,11.6666666666667,8.5,44.9263721552878,1,43.0789825970549,"MEDIUM","HIGH_STRAT",1
"190",119,"33","160323_1352",23,2,"PREF","Freerider","Freerider",0,27.8,13,4.33333333333333,6.5,6.66666666666667,0,26.6276803118908,"LOW","LOW_STRAT",1
"191",22,"7","160321_1143",22,2,"STRAT","Others","grouptype_is_mixed",8,31.8,33,11,12.5,31.1242603550296,0,33.5218058294981,"LOW","LOW_STRAT",1
"192",95,"31","160323_1155",23,2,"PREF","Others","Others",17,29.4,44,14.6666666666667,13.5,67.979797979798,1,48.8552188552189,"MEDIUM","HIGH_STRAT",3
"193",98,"40","160323_1352",2,2,"PREF","Freerider","grouptype_is_mixed",10,17.2,12,4,1,58.2276203328835,1,46.3967611336032,"MEDIUM","HIGH_STRAT",3
"194",162,"54","160324_1558",18,2,"RAND","Others","grouptype_is_mixed",5,30,25,8.33333333333333,10,72.1129601613717,1,41.6271642292822,"MEDIUM","LOW_STRAT",1
"195",45,"15","160321_1405",21,2,"STRAT","CondCoop","grouptype_is_mixed",20,13.2,22,7.33333333333333,1,31.1111111111111,0,30.7746390458255,"LOW","LOW_STRAT",1
"196",68,"24","160321_1553",20,2,"STRAT","CondCoop","grouptype_is_mixed",10,28,30,10,10,0,0,4.44444444444444,"LOW","LOW_STRAT",1
"197",165,"55","160324_1558",21,2,"RAND","Freerider","grouptype_is_mixed",10,29.2,32,10.6666666666667,11,43.2879475542108,0,36.097943631983,"LOW","LOW_STRAT",2
"198",173,"58","160329_1355",5,2,"RAND","CondCoop","grouptype_is_mixed",5,25.2,17,5.66666666666667,6,37.8944490019141,0,37.9564305897366,"MEDIUM","LOW_STRAT",1
"199",21,"1","160321_1143",21,2,"STRAT","CondCoop","grouptype_is_mixed",9,26.6,26,8.66666666666667,8.5,69.5069033530572,1,63.2719701950471,"HIGH","HIGH_STRAT",1
"200",182,"61","160329_1355",14,2,"RAND","CondCoop","grouptype_is_mixed",20,22.8,38,12.6666666666667,9,30.5842676146204,0,48.8171846990551,"MEDIUM","HIGH_STRAT",3
"201",125,"43","160323_1557",5,2,"PREF","Freerider","Freerider",1,20.2,2,0.666666666666667,0.5,20,0,23.0750307503075,"LOW","LOW_STRAT",1
"202",58,"23","160321_1553",10,2,"STRAT","Others","grouptype_is_mixed",15,32,45,15,15,24.1767068273092,0,22.9808121374386,"LOW","LOW_STRAT",2
"203",42,"11","160321_1405",18,2,"STRAT","CondCoop","grouptype_is_mixed",7,18.4,9,3,1,32.4369114877589,0,48.9642184557439,"HIGH","HIGH_STRAT",1
"204",56,"21","160321_1553",8,2,"STRAT","Others","grouptype_is_mixed",2,39,35,11.6666666666667,16.5,39.8661311914324,0,43.0789825970549,"MEDIUM","HIGH_STRAT",2
"205",172,"58","160329_1355",4,2,"RAND","CondCoop","grouptype_is_mixed",12,18.2,17,5.66666666666667,2.5,62.6415094339623,1,37.9564305897366,"MEDIUM","LOW_STRAT",2
"206",152,"51","160324_1558",8,2,"RAND","CondCoop","grouptype_is_mixed",5,42,45,15,20,44.5990922844176,1,34.9918753852188,"LOW","LOW_STRAT",1
"207",145,"49","160324_1558",1,2,"RAND","Freerider","grouptype_is_mixed",0,32,20,6.66666666666667,10,59.468818288788,1,40.3440354121141,"MEDIUM","LOW_STRAT",1
"208",43,"12","160321_1405",19,2,"STRAT","CondCoop","grouptype_is_mixed",0,26,10,3.33333333333333,5,24.1280602636535,0,38.4406779661017,"MEDIUM","LOW_STRAT",2
"209",168,"56","160324_1558",24,2,"RAND","CondCoop","grouptype_is_mixed",20,25.2,42,14,11,72.5836275004202,1,56.0150165293887,"HIGH","HIGH_STRAT",1
"210",186,"62","160329_1355",18,2,"RAND","CondCoop","grouptype_is_mixed",10,30.4,34,11.3333333333333,12,28.8888888888889,0,39.3242791602103,"MEDIUM","LOW_STRAT",3
"211",97,"40","160323_1352",1,2,"PREF","CondCoop","grouptype_is_mixed",2,25.2,12,4,5,44.0665766981556,1,46.3967611336032,"MEDIUM","HIGH_STRAT",2
"212",177,"59","160329_1355",9,2,"RAND","Freerider","grouptype_is_mixed",0,38,30,10,15,12.5731473885699,0,18.6680035244432,"LOW","LOW_STRAT",1
"213",8,"8","160321_1143",8,2,"STRAT","CondCoop","grouptype_is_mixed",20,24.6,41,13.6666666666667,10.5,29.1518737672584,0,25.2991452991453,"LOW","LOW_STRAT",1
"214",175,"59","160329_1355",7,2,"RAND","Others","grouptype_is_mixed",10,28,30,10,10,21.7154315923799,0,18.6680035244432,"LOW","LOW_STRAT",3
"215",24,"1","160321_1143",24,2,"STRAT","CondCoop","grouptype_is_mixed",9,26.6,26,8.66666666666667,8.5,38.2577251808021,0,63.2719701950471,"HIGH","HIGH_STRAT",2
"216",181,"61","160329_1355",13,2,"RAND","Freerider","grouptype_is_mixed",0,42.8,38,12.6666666666667,19,55.1946039558837,1,48.8171846990551,"MEDIUM","HIGH_STRAT",2
"217",162,"54","160324_1558",18,3,"RAND","Others","grouptype_is_mixed",5,30,25,8.33333333333333,10,72.1129601613717,1,41.6271642292822,"MEDIUM","LOW_STRAT",1
"218",111,"39","160323_1352",15,3,"PREF","Others","Others",15,17,20,6.66666666666667,2.5,76.0053981106613,1,55.1896836107362,"HIGH","HIGH_STRAT",1
"219",108,"35","160323_1352",12,3,"PREF","Freerider","Freerider",0,20,0,0,0,23.6707152496626,0,35.6125356125356,"LOW","LOW_STRAT",3
"220",42,"11","160321_1405",18,3,"STRAT","CondCoop","grouptype_is_mixed",0,20.6,1,0.333333333333333,0.5,32.4369114877589,0,48.9642184557439,"HIGH","HIGH_STRAT",1
"221",22,"7","160321_1143",22,3,"STRAT","Others","grouptype_is_mixed",6,23,15,5,4.5,31.1242603550296,0,33.5218058294981,"LOW","LOW_STRAT",1
"222",122,"43","160323_1557",2,3,"PREF","Freerider","Freerider",0,20.6,1,0.333333333333333,0.5,35.8917589175892,0,23.0750307503075,"LOW","LOW_STRAT",2
"223",6,"8","160321_1143",6,3,"STRAT","Freerider","grouptype_is_mixed",10,38.8,48,16,19,20.0788954635109,0,25.2991452991453,"LOW","LOW_STRAT",3
"224",125,"43","160323_1557",5,3,"PREF","Freerider","Freerider",1,19.6,1,0.333333333333333,0,20,0,23.0750307503075,"LOW","LOW_STRAT",1
"225",107,"39","160323_1352",11,3,"PREF","Others","Others",5,27,20,6.66666666666667,7.5,53.9901034637877,1,55.1896836107362,"HIGH","HIGH_STRAT",2
"226",151,"51","160324_1558",7,3,"RAND","Others","grouptype_is_mixed",20,27,45,15,12.5,6.66666666666667,0,34.9918753852188,"LOW","LOW_STRAT",2
"227",167,"56","160324_1558",23,3,"RAND","Others","grouptype_is_mixed",6,37.4,39,13,16.5,52.6777609682299,1,56.0150165293887,"HIGH","HIGH_STRAT",2
"228",21,"1","160321_1143",21,3,"STRAT","CondCoop","grouptype_is_mixed",9,26,25,8.33333333333333,8,69.5069033530572,1,63.2719701950471,"HIGH","HIGH_STRAT",1
"229",129,"42","160323_1557",9,3,"PREF","Freerider","Freerider",20,33,55,18.3333333333333,17.5,63.7720377203772,1,53.9702063687304,"HIGH","HIGH_STRAT",3
"230",149,"50","160324_1558",5,3,"RAND","Freerider","grouptype_is_mixed",0,35,25,8.33333333333333,12.5,38.2450832072617,0,44.0376533871239,"MEDIUM","HIGH_STRAT",1
"231",18,"6","160321_1143",18,3,"STRAT","Freerider","grouptype_is_mixed",5,19.2,7,2.33333333333333,1,39.0401051939514,0,38.7332895025203,"MEDIUM","LOW_STRAT",3
"232",65,"22","160321_1553",17,3,"STRAT","Others","grouptype_is_mixed",15,32,45,15,15,39.8661311914324,0,30.2275769745649,"LOW","LOW_STRAT",3
"233",24,"1","160321_1143",24,3,"STRAT","CondCoop","grouptype_is_mixed",6,29,25,8.33333333333333,9.5,38.2577251808021,0,63.2719701950471,"HIGH","HIGH_STRAT",2
"234",38,"13","160321_1405",14,3,"STRAT","Others","grouptype_is_mixed",9,26.6,26,8.66666666666667,8.5,40.180790960452,0,40.8612680477087,"MEDIUM","LOW_STRAT",2
"235",8,"8","160321_1143",8,3,"STRAT","CondCoop","grouptype_is_mixed",20,28.8,48,16,14,29.1518737672584,0,25.2991452991453,"LOW","LOW_STRAT",1
"236",120,"33","160323_1352",24,3,"PREF","Freerider","Freerider",0,29,15,5,7.5,47.9262258209627,1,26.6276803118908,"LOW","LOW_STRAT",2
"237",161,"54","160324_1558",17,3,"RAND","CondCoop","grouptype_is_mixed",10,25,25,8.33333333333333,7.5,31.5784165405951,0,41.6271642292822,"MEDIUM","LOW_STRAT",3
"238",45,"15","160321_1405",21,3,"STRAT","CondCoop","grouptype_is_mixed",0,21.2,2,0.666666666666667,1,31.1111111111111,0,30.7746390458255,"LOW","LOW_STRAT",1
"239",91,"25","160323_1155",19,3,"PREF","Freerider","Freerider",0,26,10,3.33333333333333,5,33.3333333333333,0,33.4343434343434,"LOW","LOW_STRAT",1
"240",160,"54","160324_1558",16,3,"RAND","Freerider","grouptype_is_mixed",10,25,25,8.33333333333333,7.5,21.19011598588,0,41.6271642292822,"MEDIUM","LOW_STRAT",2
"241",95,"31","160323_1155",23,3,"PREF","Others","Others",18,31.4,49,16.3333333333333,15.5,67.979797979798,1,48.8552188552189,"MEDIUM","HIGH_STRAT",3
"242",114,"38","160323_1352",18,3,"PREF","Others","Others",0,36.2,27,9,13.5,44.3364822312191,1,48.349077822762,"MEDIUM","HIGH_STRAT",2
"243",85,"31","160323_1155",13,3,"PREF","Others","Others",16,33.4,49,16.3333333333333,16.5,55.3535353535353,1,48.8552188552189,"MEDIUM","HIGH_STRAT",1
"244",15,"7","160321_1143",15,3,"STRAT","CondCoop","grouptype_is_mixed",9,20,15,5,3,32.3734385272847,0,33.5218058294981,"LOW","LOW_STRAT",2
"245",30,"11","160321_1405",6,3,"STRAT","UncondCoop","grouptype_is_mixed",1,19.6,1,0.333333333333333,0,55.1939736346516,1,48.9642184557439,"HIGH","HIGH_STRAT",3
"246",105,"38","160323_1352",9,3,"PREF","Others","Others",7,29.2,27,9,10,40.0539811066127,0,48.349077822762,"MEDIUM","HIGH_STRAT",1
"247",37,"12","160321_1405",13,3,"STRAT","Freerider","grouptype_is_mixed",10,22,20,6.66666666666667,5,44.1280602636535,1,38.4406779661017,"MEDIUM","LOW_STRAT",1
"248",55,"23","160321_1553",7,3,"STRAT","Freerider","grouptype_is_mixed",20,24,40,13.3333333333333,10,24.4444444444444,0,22.9808121374386,"LOW","LOW_STRAT",3
"249",147,"49","160324_1558",3,3,"RAND","CondCoop","grouptype_is_mixed",20,13.2,22,7.33333333333333,1,49.4503277861826,1,40.3440354121141,"MEDIUM","LOW_STRAT",2
"250",100,"35","160323_1352",4,3,"PREF","Freerider","Freerider",0,20,0,0,0,27.719298245614,0,35.6125356125356,"LOW","LOW_STRAT",2
"251",68,"24","160321_1553",20,3,"STRAT","CondCoop","grouptype_is_mixed",15,20,25,8.33333333333333,5,0,0,4.44444444444444,"LOW","LOW_STRAT",1
"252",39,"14","160321_1405",15,3,"STRAT","CondCoop","grouptype_is_mixed",5,30,25,8.33333333333333,10,34.8173258003767,0,35.1964846202134,"LOW","LOW_STRAT",1
"253",104,"35","160323_1352",8,3,"PREF","Freerider","Freerider",0,20,0,0,0,55.4475933423302,1,35.6125356125356,"LOW","LOW_STRAT",1
"254",148,"50","160324_1558",4,3,"RAND","CondCoop","grouptype_is_mixed",5,30,25,8.33333333333333,10,39.3444276348966,0,44.0376533871239,"MEDIUM","HIGH_STRAT",2
"255",157,"53","160324_1558",13,3,"RAND","Freerider","grouptype_is_mixed",0,21.8,3,1,1.5,50.4555387460077,1,35.6709811172746,"LOW","LOW_STRAT",2
"256",84,"25","160323_1155",12,3,"PREF","Freerider","Freerider",10,16,10,3.33333333333333,0,36.6666666666667,0,33.4343434343434,"LOW","LOW_STRAT",3
"257",41,"13","160321_1405",17,3,"STRAT","Freerider","grouptype_is_mixed",10,25.6,26,8.66666666666667,8,42.2222222222222,0,40.8612680477087,"MEDIUM","LOW_STRAT",1
"258",158,"53","160324_1558",14,3,"RAND","Freerider","grouptype_is_mixed",0,21.8,3,1,1.5,12.1129601613717,0,35.6709811172746,"LOW","LOW_STRAT",3
"259",142,"48","160323_1557",22,3,"PREF","Others","Others",20,30,50,16.6666666666667,15,47.4538745387454,1,41.003143364767,"MEDIUM","LOW_STRAT",1
"260",9,"8","160321_1143",9,3,"STRAT","UncondCoop","grouptype_is_mixed",18,30.8,48,16,15,26.6666666666667,0,25.2991452991453,"LOW","LOW_STRAT",2
"261",2,"5","160321_1143",2,3,"STRAT","UncondCoop","grouptype_is_mixed",20,30,50,16.6666666666667,15,41.5121630506246,0,42.4326101249178,"MEDIUM","HIGH_STRAT",1
"262",14,"1","160321_1143",14,3,"STRAT","Freerider","grouptype_is_mixed",10,25,25,8.33333333333333,7.5,82.0512820512821,1,63.2719701950471,"HIGH","HIGH_STRAT",3
"263",150,"50","160324_1558",6,3,"RAND","CondCoop","grouptype_is_mixed",20,15,25,8.33333333333333,2.5,54.5234493192133,1,44.0376533871239,"MEDIUM","HIGH_STRAT",3
"264",35,"15","160321_1405",11,3,"STRAT","Freerider","grouptype_is_mixed",0,21.2,2,0.666666666666667,1,30.7947269303201,0,30.7746390458255,"LOW","LOW_STRAT",2
"265",10,"5","160321_1143",10,3,"STRAT","CondCoop","grouptype_is_mixed",20,30,50,16.6666666666667,15,40.7889546351085,0,42.4326101249178,"MEDIUM","HIGH_STRAT",3
"266",20,"7","160321_1143",20,3,"STRAT","CondCoop","grouptype_is_mixed",0,29,15,5,7.5,37.0677186061801,0,33.5218058294981,"LOW","LOW_STRAT",3
"267",173,"58","160329_1355",5,3,"RAND","CondCoop","grouptype_is_mixed",5,27.6,21,7,8,37.8944490019141,0,37.9564305897366,"MEDIUM","LOW_STRAT",1
"268",56,"21","160321_1553",8,3,"STRAT","Others","grouptype_is_mixed",19,32.2,52,17.3333333333333,16.5,39.8661311914324,0,43.0789825970549,"MEDIUM","HIGH_STRAT",2
"269",50,"23","160321_1553",2,3,"STRAT","CondCoop","grouptype_is_mixed",15,29,40,13.3333333333333,12.5,20.3212851405622,0,22.9808121374386,"LOW","LOW_STRAT",1
"270",79,"31","160323_1155",7,3,"PREF","Others","Others",15,34.4,49,16.3333333333333,17,23.2323232323232,0,48.8552188552189,"MEDIUM","HIGH_STRAT",2
"271",145,"49","160324_1558",1,3,"RAND","Freerider","grouptype_is_mixed",2,31.2,22,7.33333333333333,10,59.468818288788,1,40.3440354121141,"MEDIUM","LOW_STRAT",1
"272",184,"62","160329_1355",16,3,"RAND","Freerider","grouptype_is_mixed",17,29.4,44,14.6666666666667,13.5,55.5555555555556,1,39.3242791602103,"MEDIUM","LOW_STRAT",2
"273",166,"56","160324_1558",22,3,"RAND","CondCoop","grouptype_is_mixed",13,30.4,39,13,13,42.7836611195159,0,56.0150165293887,"HIGH","HIGH_STRAT",3
"274",113,"38","160323_1352",17,3,"PREF","Others","Others",20,16.2,27,9,3.5,60.6567701304543,1,48.349077822762,"MEDIUM","HIGH_STRAT",3
"275",112,"33","160323_1352",16,3,"PREF","Freerider","Freerider",15,14,15,5,0,25.2901484480432,0,26.6276803118908,"LOW","LOW_STRAT",3
"276",40,"15","160321_1405",16,3,"STRAT","Freerider","grouptype_is_mixed",2,19.2,2,0.666666666666667,0,30.4180790960452,0,30.7746390458255,"LOW","LOW_STRAT",3
"277",116,"40","160323_1352",20,3,"PREF","CondCoop","grouptype_is_mixed",0,21.2,2,0.666666666666667,1,36.8960863697706,0,46.3967611336032,"MEDIUM","HIGH_STRAT",1
"278",168,"56","160324_1558",24,3,"RAND","CondCoop","grouptype_is_mixed",20,23.4,39,13,9.5,72.5836275004202,1,56.0150165293887,"HIGH","HIGH_STRAT",1
"279",63,"24","160321_1553",15,3,"STRAT","Others","grouptype_is_mixed",0,35,25,8.33333333333333,12.5,6.66666666666667,0,4.44444444444444,"LOW","LOW_STRAT",2
"280",80,"25","160323_1155",8,3,"PREF","Freerider","Freerider",0,26,10,3.33333333333333,5,30.3030303030303,0,33.4343434343434,"LOW","LOW_STRAT",2
"281",183,"61","160329_1355",15,3,"RAND","CondCoop","grouptype_is_mixed",20,22.8,38,12.6666666666667,9,60.6726825266612,1,48.8171846990551,"MEDIUM","HIGH_STRAT",1
"282",181,"61","160329_1355",13,3,"RAND","Freerider","grouptype_is_mixed",0,42.8,38,12.6666666666667,19,55.1946039558837,1,48.8171846990551,"MEDIUM","HIGH_STRAT",2
"283",121,"42","160323_1557",1,3,"PREF","Freerider","Freerider",20,33,55,18.3333333333333,17.5,77.0561705617056,1,53.9702063687304,"HIGH","HIGH_STRAT",2
"284",164,"55","160324_1558",20,3,"RAND","Others","grouptype_is_mixed",15,32,45,15,15,47.2281055639603,1,36.097943631983,"LOW","LOW_STRAT",3
"285",138,"42","160323_1557",18,3,"PREF","Freerider","Freerider",15,38,55,18.3333333333333,20,21.0824108241082,0,53.9702063687304,"HIGH","HIGH_STRAT",1
"286",60,"22","160321_1553",12,3,"STRAT","Freerider","grouptype_is_mixed",15,32,45,15,15,25.4082998661312,0,30.2275769745649,"LOW","LOW_STRAT",2
"287",177,"59","160329_1355",9,3,"RAND","Freerider","grouptype_is_mixed",5,37.2,37,12.3333333333333,16,12.5731473885699,0,18.6680035244432,"LOW","LOW_STRAT",1
"288",58,"23","160321_1553",10,3,"STRAT","Others","grouptype_is_mixed",5,39,40,13.3333333333333,17.5,24.1767068273092,0,22.9808121374386,"LOW","LOW_STRAT",2
"289",182,"61","160329_1355",14,3,"RAND","CondCoop","grouptype_is_mixed",18,24.8,38,12.6666666666667,10,30.5842676146204,0,48.8171846990551,"MEDIUM","HIGH_STRAT",3
"290",12,"6","160321_1143",12,3,"STRAT","Freerider","grouptype_is_mixed",0,24.2,7,2.33333333333333,3.5,38.1459566074951,0,38.7332895025203,"MEDIUM","LOW_STRAT",1
"291",146,"49","160324_1558",2,3,"RAND","Others","grouptype_is_mixed",0,33.2,22,7.33333333333333,11,12.1129601613717,0,40.3440354121141,"MEDIUM","LOW_STRAT",3
"292",57,"22","160321_1553",9,3,"STRAT","CondCoop","grouptype_is_mixed",15,32,45,15,15,25.4082998661312,0,30.2275769745649,"LOW","LOW_STRAT",1
"293",25,"14","160321_1405",1,3,"STRAT","Others","grouptype_is_mixed",15,20,25,8.33333333333333,5,39.2090395480226,0,35.1964846202134,"LOW","LOW_STRAT",3
"294",159,"53","160324_1558",15,3,"RAND","Others","grouptype_is_mixed",3,18.8,3,1,0,44.4444444444444,1,35.6709811172746,"LOW","LOW_STRAT",1
"295",11,"5","160321_1143",11,3,"STRAT","CondCoop","grouptype_is_mixed",10,40,50,16.6666666666667,20,44.9967126890204,1,42.4326101249178,"MEDIUM","HIGH_STRAT",2
"296",134,"48","160323_1557",14,3,"PREF","Others","Others",20,30,50,16.6666666666667,15,35.5555555555556,0,41.003143364767,"MEDIUM","LOW_STRAT",2
"297",152,"51","160324_1558",8,3,"RAND","CondCoop","grouptype_is_mixed",10,37,45,15,17.5,44.5990922844176,1,34.9918753852188,"LOW","LOW_STRAT",1
"298",97,"40","160323_1352",1,3,"PREF","CondCoop","grouptype_is_mixed",2,19.2,2,0.666666666666667,0,44.0665766981556,1,46.3967611336032,"MEDIUM","HIGH_STRAT",2
"299",165,"55","160324_1558",21,3,"RAND","Freerider","grouptype_is_mixed",15,32,45,15,15,43.2879475542108,0,36.097943631983,"LOW","LOW_STRAT",2
"300",87,"32","160323_1155",15,3,"PREF","Freerider","grouptype_is_mixed",20,36,60,20,20,44.4444444444444,1,56.3299663299663,"HIGH","HIGH_STRAT",1
"301",47,"14","160321_1405",23,3,"STRAT","Freerider","grouptype_is_mixed",5,30,25,8.33333333333333,10,31.5630885122411,0,35.1964846202134,"LOW","LOW_STRAT",2
"302",163,"55","160324_1558",19,3,"RAND","CondCoop","grouptype_is_mixed",15,32,45,15,15,17.7777777777778,0,36.097943631983,"LOW","LOW_STRAT",1
"303",31,"11","160321_1405",7,3,"STRAT","Freerider","grouptype_is_mixed",0,20.6,1,0.333333333333333,0.5,59.2617702448211,1,48.9642184557439,"HIGH","HIGH_STRAT",2
"304",101,"39","160323_1352",5,3,"PREF","Others","Others",0,32,20,6.66666666666667,10,35.5735492577598,0,55.1896836107362,"HIGH","HIGH_STRAT",3
"305",23,"6","160321_1143",23,3,"STRAT","CondCoop","grouptype_is_mixed",2,22.2,7,2.33333333333333,2.5,39.0138067061144,0,38.7332895025203,"MEDIUM","LOW_STRAT",2
"306",67,"21","160321_1553",19,3,"STRAT","Freerider","grouptype_is_mixed",15,36.2,52,17.3333333333333,18.5,44.4444444444444,1,43.0789825970549,"MEDIUM","HIGH_STRAT",3
"307",153,"51","160324_1558",9,3,"RAND","CondCoop","grouptype_is_mixed",15,32,45,15,15,53.7098672045722,1,34.9918753852188,"LOW","LOW_STRAT",3
"308",36,"12","160321_1405",12,3,"STRAT","Freerider","grouptype_is_mixed",5,27,20,6.66666666666667,7.5,47.0659133709981,1,38.4406779661017,"MEDIUM","LOW_STRAT",3
"309",98,"40","160323_1352",2,3,"PREF","Freerider","grouptype_is_mixed",0,21.2,2,0.666666666666667,1,58.2276203328835,1,46.3967611336032,"MEDIUM","HIGH_STRAT",3
"310",186,"62","160329_1355",18,3,"RAND","CondCoop","grouptype_is_mixed",12,34.4,44,14.6666666666667,16,28.8888888888889,0,39.3242791602103,"MEDIUM","LOW_STRAT",3
"311",185,"62","160329_1355",17,3,"RAND","CondCoop","grouptype_is_mixed",15,31.4,44,14.6666666666667,14.5,33.5283930361863,0,39.3242791602103,"MEDIUM","LOW_STRAT",1
"312",119,"33","160323_1352",23,3,"PREF","Freerider","Freerider",0,29,15,5,7.5,6.66666666666667,0,26.6276803118908,"LOW","LOW_STRAT",1
"313",88,"32","160323_1155",16,3,"PREF","UncondCoop","grouptype_is_mixed",20,36,60,20,20,43.3333333333333,0,56.3299663299663,"HIGH","HIGH_STRAT",2
"314",172,"58","160329_1355",4,3,"RAND","CondCoop","grouptype_is_mixed",15,17.6,21,7,3,62.6415094339623,1,37.9564305897366,"MEDIUM","LOW_STRAT",2
"315",174,"58","160329_1355",6,3,"RAND","Freerider","grouptype_is_mixed",1,31.6,21,7,10,13.3333333333333,0,37.9564305897366,"MEDIUM","LOW_STRAT",3
"316",89,"32","160323_1155",17,3,"PREF","Freerider","grouptype_is_mixed",20,36,60,20,20,81.2121212121212,1,56.3299663299663,"HIGH","HIGH_STRAT",3
"317",143,"48","160323_1557",23,3,"PREF","Others","Others",10,40,50,16.6666666666667,20,40,0,41.003143364767,"MEDIUM","LOW_STRAT",3
"318",144,"43","160323_1557",24,3,"PREF","Freerider","Freerider",0,20.6,1,0.333333333333333,0.5,13.3333333333333,0,23.0750307503075,"LOW","LOW_STRAT",3
"319",70,"21","160321_1553",22,3,"STRAT","CondCoop","grouptype_is_mixed",18,33.2,52,17.3333333333333,17,44.9263721552878,1,43.0789825970549,"MEDIUM","HIGH_STRAT",1
"320",44,"13","160321_1405",20,3,"STRAT","CondCoop","grouptype_is_mixed",7,28.6,26,8.66666666666667,9.5,40.180790960452,0,40.8612680477087,"MEDIUM","LOW_STRAT",3
"321",43,"12","160321_1405",19,3,"STRAT","CondCoop","grouptype_is_mixed",5,27,20,6.66666666666667,7.5,24.1280602636535,0,38.4406779661017,"MEDIUM","LOW_STRAT",2
"322",54,"24","160321_1553",6,3,"STRAT","Others","grouptype_is_mixed",10,25,25,8.33333333333333,7.5,6.66666666666667,0,4.44444444444444,"LOW","LOW_STRAT",3
"323",175,"59","160329_1355",7,3,"RAND","Others","grouptype_is_mixed",12,30.2,37,12.3333333333333,12.5,21.7154315923799,0,18.6680035244432,"LOW","LOW_STRAT",3
"324",176,"59","160329_1355",8,3,"RAND","Others","grouptype_is_mixed",20,22.2,37,12.3333333333333,8.5,21.7154315923799,0,18.6680035244432,"LOW","LOW_STRAT",2
"325",183,"61","160329_1355",15,4,"RAND","CondCoop","grouptype_is_mixed",0,29,15,5,7.5,60.6726825266612,1,48.8171846990551,"MEDIUM","HIGH_STRAT",1
"326",37,"12","160321_1405",13,4,"STRAT","Freerider","grouptype_is_mixed",0,32,20,6.66666666666667,10,44.1280602636535,1,38.4406779661017,"MEDIUM","LOW_STRAT",1
"327",11,"5","160321_1143",11,4,"STRAT","CondCoop","grouptype_is_mixed",20,36,60,20,20,44.9967126890204,1,42.4326101249178,"MEDIUM","HIGH_STRAT",2
"328",129,"42","160323_1557",9,4,"PREF","Freerider","Freerider",10,38.8,48,16,19,63.7720377203772,1,53.9702063687304,"HIGH","HIGH_STRAT",3
"329",88,"32","160323_1155",16,4,"PREF","UncondCoop","grouptype_is_mixed",20,36,60,20,20,43.3333333333333,0,56.3299663299663,"HIGH","HIGH_STRAT",2
"330",151,"51","160324_1558",7,4,"RAND","Others","grouptype_is_mixed",5,31.8,28,9.33333333333333,11.5,6.66666666666667,0,34.9918753852188,"LOW","LOW_STRAT",2
"331",44,"13","160321_1405",20,4,"STRAT","CondCoop","grouptype_is_mixed",8,27.6,26,8.66666666666667,9,40.180790960452,0,40.8612680477087,"MEDIUM","LOW_STRAT",3
"332",166,"56","160324_1558",22,4,"RAND","CondCoop","grouptype_is_mixed",12,30.2,37,12.3333333333333,12.5,42.7836611195159,0,56.0150165293887,"HIGH","HIGH_STRAT",3
"333",89,"32","160323_1155",17,4,"PREF","Freerider","grouptype_is_mixed",20,36,60,20,20,81.2121212121212,1,56.3299663299663,"HIGH","HIGH_STRAT",3
"334",120,"33","160323_1352",24,4,"PREF","Freerider","Freerider",5,21,10,3.33333333333333,2.5,47.9262258209627,1,26.6276803118908,"LOW","LOW_STRAT",2
"335",31,"11","160321_1405",7,4,"STRAT","Freerider","grouptype_is_mixed",10,25,25,8.33333333333333,7.5,59.2617702448211,1,48.9642184557439,"HIGH","HIGH_STRAT",2
"336",125,"43","160323_1557",5,4,"PREF","Freerider","Freerider",0,20,0,0,0,20,0,23.0750307503075,"LOW","LOW_STRAT",1
"337",8,"8","160321_1143",8,4,"STRAT","CondCoop","grouptype_is_mixed",20,25.2,42,14,11,29.1518737672584,0,25.2991452991453,"LOW","LOW_STRAT",1
"338",121,"42","160323_1557",1,4,"PREF","Freerider","Freerider",20,28.8,48,16,14,77.0561705617056,1,53.9702063687304,"HIGH","HIGH_STRAT",2
"339",165,"55","160324_1558",21,4,"RAND","Freerider","grouptype_is_mixed",20,34.8,58,19.3333333333333,19,43.2879475542108,0,36.097943631983,"LOW","LOW_STRAT",2
"340",41,"13","160321_1405",17,4,"STRAT","Freerider","grouptype_is_mixed",8,27.6,26,8.66666666666667,9,42.2222222222222,0,40.8612680477087,"MEDIUM","LOW_STRAT",1
"341",47,"14","160321_1405",23,4,"STRAT","Freerider","grouptype_is_mixed",5,24,15,5,5,31.5630885122411,0,35.1964846202134,"LOW","LOW_STRAT",2
"342",42,"11","160321_1405",18,4,"STRAT","CondCoop","grouptype_is_mixed",15,20,25,8.33333333333333,5,32.4369114877589,0,48.9642184557439,"HIGH","HIGH_STRAT",1
"343",173,"58","160329_1355",5,4,"RAND","CondCoop","grouptype_is_mixed",3,24.2,12,4,4.5,37.8944490019141,0,37.9564305897366,"MEDIUM","LOW_STRAT",1
"344",176,"59","160329_1355",8,4,"RAND","Others","grouptype_is_mixed",20,25.8,43,14.3333333333333,11.5,21.7154315923799,0,18.6680035244432,"LOW","LOW_STRAT",2
"345",57,"22","160321_1553",9,4,"STRAT","CondCoop","grouptype_is_mixed",15,23,30,10,7.5,25.4082998661312,0,30.2275769745649,"LOW","LOW_STRAT",1
"346",60,"22","160321_1553",12,4,"STRAT","Freerider","grouptype_is_mixed",0,38,30,10,15,25.4082998661312,0,30.2275769745649,"LOW","LOW_STRAT",2
"347",9,"8","160321_1143",9,4,"STRAT","UncondCoop","grouptype_is_mixed",18,27.2,42,14,12,26.6666666666667,0,25.2991452991453,"LOW","LOW_STRAT",2
"348",84,"25","160323_1155",12,4,"PREF","Freerider","Freerider",0,20,0,0,0,36.6666666666667,0,33.4343434343434,"LOW","LOW_STRAT",3
"349",55,"23","160321_1553",7,4,"STRAT","Freerider","grouptype_is_mixed",20,24,40,13.3333333333333,10,24.4444444444444,0,22.9808121374386,"LOW","LOW_STRAT",3
"350",50,"23","160321_1553",2,4,"STRAT","CondCoop","grouptype_is_mixed",15,29,40,13.3333333333333,12.5,20.3212851405622,0,22.9808121374386,"LOW","LOW_STRAT",1
"351",100,"35","160323_1352",4,4,"PREF","Freerider","Freerider",3,18.8,3,1,0,27.719298245614,0,35.6125356125356,"LOW","LOW_STRAT",2
"352",181,"61","160329_1355",13,4,"RAND","Freerider","grouptype_is_mixed",0,29,15,5,7.5,55.1946039558837,1,48.8171846990551,"MEDIUM","HIGH_STRAT",2
"353",6,"8","160321_1143",6,4,"STRAT","Freerider","grouptype_is_mixed",4,41.2,42,14,19,20.0788954635109,0,25.2991452991453,"LOW","LOW_STRAT",3
"354",108,"35","160323_1352",12,4,"PREF","Freerider","Freerider",0,21.8,3,1,1.5,23.6707152496626,0,35.6125356125356,"LOW","LOW_STRAT",3
"355",54,"24","160321_1553",6,4,"STRAT","Others","grouptype_is_mixed",15,23,30,10,7.5,6.66666666666667,0,4.44444444444444,"LOW","LOW_STRAT",3
"356",97,"40","160323_1352",1,4,"PREF","CondCoop","grouptype_is_mixed",2,33,25,8.33333333333333,11.5,44.0665766981556,1,46.3967611336032,"MEDIUM","HIGH_STRAT",2
"357",104,"35","160323_1352",8,4,"PREF","Freerider","Freerider",0,21.8,3,1,1.5,55.4475933423302,1,35.6125356125356,"LOW","LOW_STRAT",1
"358",149,"50","160324_1558",5,4,"RAND","Freerider","grouptype_is_mixed",0,26,10,3.33333333333333,5,38.2450832072617,0,44.0376533871239,"MEDIUM","HIGH_STRAT",1
"359",63,"24","160321_1553",15,4,"STRAT","Others","grouptype_is_mixed",0,38,30,10,15,6.66666666666667,0,4.44444444444444,"LOW","LOW_STRAT",2
"360",80,"25","160323_1155",8,4,"PREF","Freerider","Freerider",0,20,0,0,0,30.3030303030303,0,33.4343434343434,"LOW","LOW_STRAT",2
"361",152,"51","160324_1558",8,4,"RAND","CondCoop","grouptype_is_mixed",8,28.8,28,9.33333333333333,10,44.5990922844176,1,34.9918753852188,"LOW","LOW_STRAT",1
"362",65,"22","160321_1553",17,4,"STRAT","Others","grouptype_is_mixed",15,23,30,10,7.5,39.8661311914324,0,30.2275769745649,"LOW","LOW_STRAT",3
"363",15,"7","160321_1143",15,4,"STRAT","CondCoop","grouptype_is_mixed",0,30.8,18,6,9,32.3734385272847,0,33.5218058294981,"LOW","LOW_STRAT",2
"364",101,"39","160323_1352",5,4,"PREF","Others","Others",10,16.6,11,3.66666666666667,0.5,35.5735492577598,0,55.1896836107362,"HIGH","HIGH_STRAT",3
"365",112,"33","160323_1352",16,4,"PREF","Freerider","Freerider",5,21,10,3.33333333333333,2.5,25.2901484480432,0,26.6276803118908,"LOW","LOW_STRAT",3
"366",14,"1","160321_1143",14,4,"STRAT","Freerider","grouptype_is_mixed",8,27.6,26,8.66666666666667,9,82.0512820512821,1,63.2719701950471,"HIGH","HIGH_STRAT",3
"367",85,"31","160323_1155",13,4,"PREF","Others","Others",15,36.2,52,17.3333333333333,18.5,55.3535353535353,1,48.8552188552189,"MEDIUM","HIGH_STRAT",1
"368",168,"56","160324_1558",24,4,"RAND","CondCoop","grouptype_is_mixed",18,24.2,37,12.3333333333333,9.5,72.5836275004202,1,56.0150165293887,"HIGH","HIGH_STRAT",1
"369",87,"32","160323_1155",15,4,"PREF","Freerider","grouptype_is_mixed",20,36,60,20,20,44.4444444444444,1,56.3299663299663,"HIGH","HIGH_STRAT",1
"370",119,"33","160323_1352",23,4,"PREF","Freerider","Freerider",0,26,10,3.33333333333333,5,6.66666666666667,0,26.6276803118908,"LOW","LOW_STRAT",1
"371",143,"48","160323_1557",23,4,"PREF","Others","Others",15,35,50,16.6666666666667,17.5,40,0,41.003143364767,"MEDIUM","LOW_STRAT",3
"372",105,"38","160323_1352",9,4,"PREF","Others","Others",10,16,10,3.33333333333333,0,40.0539811066127,0,48.349077822762,"MEDIUM","HIGH_STRAT",1
"373",153,"51","160324_1558",9,4,"RAND","CondCoop","grouptype_is_mixed",15,21.8,28,9.33333333333333,6.5,53.7098672045722,1,34.9918753852188,"LOW","LOW_STRAT",3
"374",20,"7","160321_1143",20,4,"STRAT","CondCoop","grouptype_is_mixed",5,25.8,18,6,6.5,37.0677186061801,0,33.5218058294981,"LOW","LOW_STRAT",3
"375",43,"12","160321_1405",19,4,"STRAT","CondCoop","grouptype_is_mixed",10,22,20,6.66666666666667,5,24.1280602636535,0,38.4406779661017,"MEDIUM","LOW_STRAT",2
"376",122,"43","160323_1557",2,4,"PREF","Freerider","Freerider",0,20,0,0,0,35.8917589175892,0,23.0750307503075,"LOW","LOW_STRAT",2
"377",91,"25","160323_1155",19,4,"PREF","Freerider","Freerider",0,20,0,0,0,33.3333333333333,0,33.4343434343434,"LOW","LOW_STRAT",1
"378",111,"39","160323_1352",15,4,"PREF","Others","Others",0,26.6,11,3.66666666666667,5.5,76.0053981106613,1,55.1896836107362,"HIGH","HIGH_STRAT",1
"379",30,"11","160321_1405",6,4,"STRAT","UncondCoop","grouptype_is_mixed",0,35,25,8.33333333333333,12.5,55.1939736346516,1,48.9642184557439,"HIGH","HIGH_STRAT",3
"380",144,"43","160323_1557",24,4,"PREF","Freerider","Freerider",0,20,0,0,0,13.3333333333333,0,23.0750307503075,"LOW","LOW_STRAT",3
"381",161,"54","160324_1558",17,4,"RAND","CondCoop","grouptype_is_mixed",10,25.6,26,8.66666666666667,8,31.5784165405951,0,41.6271642292822,"MEDIUM","LOW_STRAT",3
"382",177,"59","160329_1355",9,4,"RAND","Freerider","grouptype_is_mixed",20,25.8,43,14.3333333333333,11.5,12.5731473885699,0,18.6680035244432,"LOW","LOW_STRAT",1
"383",113,"38","160323_1352",17,4,"PREF","Others","Others",0,26,10,3.33333333333333,5,60.6567701304543,1,48.349077822762,"MEDIUM","HIGH_STRAT",3
"384",147,"49","160324_1558",3,4,"RAND","CondCoop","grouptype_is_mixed",20,15,25,8.33333333333333,2.5,49.4503277861826,1,40.3440354121141,"MEDIUM","LOW_STRAT",2
"385",114,"38","160323_1352",18,4,"PREF","Others","Others",0,26,10,3.33333333333333,5,44.3364822312191,1,48.349077822762,"MEDIUM","HIGH_STRAT",2
"386",67,"21","160321_1553",19,4,"STRAT","Freerider","grouptype_is_mixed",15,26,35,11.6666666666667,10,44.4444444444444,1,43.0789825970549,"MEDIUM","HIGH_STRAT",3
"387",79,"31","160323_1155",7,4,"PREF","Others","Others",18,33.2,52,17.3333333333333,17,23.2323232323232,0,48.8552188552189,"MEDIUM","HIGH_STRAT",2
"388",148,"50","160324_1558",4,4,"RAND","CondCoop","grouptype_is_mixed",10,16,10,3.33333333333333,0,39.3444276348966,0,44.0376533871239,"MEDIUM","HIGH_STRAT",2
"389",146,"49","160324_1558",2,4,"RAND","Others","grouptype_is_mixed",5,30,25,8.33333333333333,10,12.1129601613717,0,40.3440354121141,"MEDIUM","LOW_STRAT",3
"390",21,"1","160321_1143",21,4,"STRAT","CondCoop","grouptype_is_mixed",10,25.6,26,8.66666666666667,8,69.5069033530572,1,63.2719701950471,"HIGH","HIGH_STRAT",1
"391",18,"6","160321_1143",18,4,"STRAT","Freerider","grouptype_is_mixed",4,21.4,9,3,2.5,39.0401051939514,0,38.7332895025203,"MEDIUM","LOW_STRAT",3
"392",174,"58","160329_1355",6,4,"RAND","Freerider","grouptype_is_mixed",6,21.2,12,4,3,13.3333333333333,0,37.9564305897366,"MEDIUM","LOW_STRAT",3
"393",39,"14","160321_1405",15,4,"STRAT","CondCoop","grouptype_is_mixed",7,22,15,5,4,34.8173258003767,0,35.1964846202134,"LOW","LOW_STRAT",1
"394",163,"55","160324_1558",19,4,"RAND","CondCoop","grouptype_is_mixed",20,34.8,58,19.3333333333333,19,17.7777777777778,0,36.097943631983,"LOW","LOW_STRAT",1
"395",22,"7","160321_1143",22,4,"STRAT","Others","grouptype_is_mixed",13,17.8,18,6,2.5,31.1242603550296,0,33.5218058294981,"LOW","LOW_STRAT",1
"396",56,"21","160321_1553",8,4,"STRAT","Others","grouptype_is_mixed",0,41,35,11.6666666666667,17.5,39.8661311914324,0,43.0789825970549,"MEDIUM","HIGH_STRAT",2
"397",184,"62","160329_1355",16,4,"RAND","Freerider","grouptype_is_mixed",19,27.4,44,14.6666666666667,12.5,55.5555555555556,1,39.3242791602103,"MEDIUM","LOW_STRAT",2
"398",36,"12","160321_1405",12,4,"STRAT","Freerider","grouptype_is_mixed",10,22,20,6.66666666666667,5,47.0659133709981,1,38.4406779661017,"MEDIUM","LOW_STRAT",3
"399",45,"15","160321_1405",21,4,"STRAT","CondCoop","grouptype_is_mixed",0,20,0,0,0,31.1111111111111,0,30.7746390458255,"LOW","LOW_STRAT",1
"400",116,"40","160323_1352",20,4,"PREF","CondCoop","grouptype_is_mixed",3,32,25,8.33333333333333,11,36.8960863697706,0,46.3967611336032,"MEDIUM","HIGH_STRAT",1
"401",38,"13","160321_1405",14,4,"STRAT","Others","grouptype_is_mixed",10,25.6,26,8.66666666666667,8,40.180790960452,0,40.8612680477087,"MEDIUM","LOW_STRAT",2
"402",12,"6","160321_1143",12,4,"STRAT","Freerider","grouptype_is_mixed",0,25.4,9,3,4.5,38.1459566074951,0,38.7332895025203,"MEDIUM","LOW_STRAT",1
"403",158,"53","160324_1558",14,4,"RAND","Freerider","grouptype_is_mixed",0,20,0,0,0,12.1129601613717,0,35.6709811172746,"LOW","LOW_STRAT",3
"404",160,"54","160324_1558",16,4,"RAND","Freerider","grouptype_is_mixed",10,25.6,26,8.66666666666667,8,21.19011598588,0,41.6271642292822,"MEDIUM","LOW_STRAT",2
"405",95,"31","160323_1155",23,4,"PREF","Others","Others",19,32.2,52,17.3333333333333,16.5,67.979797979798,1,48.8552188552189,"MEDIUM","HIGH_STRAT",3
"406",159,"53","160324_1558",15,4,"RAND","Others","grouptype_is_mixed",0,20,0,0,0,44.4444444444444,1,35.6709811172746,"LOW","LOW_STRAT",1
"407",186,"62","160329_1355",18,4,"RAND","CondCoop","grouptype_is_mixed",15,31.4,44,14.6666666666667,14.5,28.8888888888889,0,39.3242791602103,"MEDIUM","LOW_STRAT",3
"408",107,"39","160323_1352",11,4,"PREF","Others","Others",1,25.6,11,3.66666666666667,5,53.9901034637877,1,55.1896836107362,"HIGH","HIGH_STRAT",2
"409",35,"15","160321_1405",11,4,"STRAT","Freerider","grouptype_is_mixed",0,20,0,0,0,30.7947269303201,0,30.7746390458255,"LOW","LOW_STRAT",2
"410",98,"40","160323_1352",2,4,"PREF","Freerider","grouptype_is_mixed",20,15,25,8.33333333333333,2.5,58.2276203328835,1,46.3967611336032,"MEDIUM","HIGH_STRAT",3
"411",24,"1","160321_1143",24,4,"STRAT","CondCoop","grouptype_is_mixed",8,27.6,26,8.66666666666667,9,38.2577251808021,0,63.2719701950471,"HIGH","HIGH_STRAT",2
"412",70,"21","160321_1553",22,4,"STRAT","CondCoop","grouptype_is_mixed",20,21,35,11.6666666666667,7.5,44.9263721552878,1,43.0789825970549,"MEDIUM","HIGH_STRAT",1
"413",2,"5","160321_1143",2,4,"STRAT","UncondCoop","grouptype_is_mixed",20,36,60,20,20,41.5121630506246,0,42.4326101249178,"MEDIUM","HIGH_STRAT",1
"414",182,"61","160329_1355",14,4,"RAND","CondCoop","grouptype_is_mixed",15,14,15,5,0,30.5842676146204,0,48.8171846990551,"MEDIUM","HIGH_STRAT",3
"415",58,"23","160321_1553",10,4,"STRAT","Others","grouptype_is_mixed",5,39,40,13.3333333333333,17.5,24.1767068273092,0,22.9808121374386,"LOW","LOW_STRAT",2
"416",142,"48","160323_1557",22,4,"PREF","Others","Others",15,35,50,16.6666666666667,17.5,47.4538745387454,1,41.003143364767,"MEDIUM","LOW_STRAT",1
"417",164,"55","160324_1558",20,4,"RAND","Others","grouptype_is_mixed",18,36.8,58,19.3333333333333,20,47.2281055639603,1,36.097943631983,"LOW","LOW_STRAT",3
"418",134,"48","160323_1557",14,4,"PREF","Others","Others",20,30,50,16.6666666666667,15,35.5555555555556,0,41.003143364767,"MEDIUM","LOW_STRAT",2
"419",162,"54","160324_1558",18,4,"RAND","Others","grouptype_is_mixed",6,29.6,26,8.66666666666667,10,72.1129601613717,1,41.6271642292822,"MEDIUM","LOW_STRAT",1
"420",157,"53","160324_1558",13,4,"RAND","Freerider","grouptype_is_mixed",0,20,0,0,0,50.4555387460077,1,35.6709811172746,"LOW","LOW_STRAT",2
"421",23,"6","160321_1143",23,4,"STRAT","CondCoop","grouptype_is_mixed",5,20.4,9,3,2,39.0138067061144,0,38.7332895025203,"MEDIUM","LOW_STRAT",2
"422",185,"62","160329_1355",17,4,"RAND","CondCoop","grouptype_is_mixed",10,36.4,44,14.6666666666667,17,33.5283930361863,0,39.3242791602103,"MEDIUM","LOW_STRAT",1
"423",25,"14","160321_1405",1,4,"STRAT","Others","grouptype_is_mixed",3,26,15,5,6,39.2090395480226,0,35.1964846202134,"LOW","LOW_STRAT",3
"424",68,"24","160321_1553",20,4,"STRAT","CondCoop","grouptype_is_mixed",15,23,30,10,7.5,0,0,4.44444444444444,"LOW","LOW_STRAT",1
"425",172,"58","160329_1355",4,4,"RAND","CondCoop","grouptype_is_mixed",3,24.2,12,4,4.5,62.6415094339623,1,37.9564305897366,"MEDIUM","LOW_STRAT",2
"426",150,"50","160324_1558",6,4,"RAND","CondCoop","grouptype_is_mixed",0,26,10,3.33333333333333,5,54.5234493192133,1,44.0376533871239,"MEDIUM","HIGH_STRAT",3
"427",175,"59","160329_1355",7,4,"RAND","Others","grouptype_is_mixed",3,42.8,43,14.3333333333333,20,21.7154315923799,0,18.6680035244432,"LOW","LOW_STRAT",3
"428",138,"42","160323_1557",18,4,"PREF","Freerider","Freerider",18,30.8,48,16,15,21.0824108241082,0,53.9702063687304,"HIGH","HIGH_STRAT",1
"429",10,"5","160321_1143",10,4,"STRAT","CondCoop","grouptype_is_mixed",20,36,60,20,20,40.7889546351085,0,42.4326101249178,"MEDIUM","HIGH_STRAT",3
"430",40,"15","160321_1405",16,4,"STRAT","Freerider","grouptype_is_mixed",0,20,0,0,0,30.4180790960452,0,30.7746390458255,"LOW","LOW_STRAT",3
"431",145,"49","160324_1558",1,4,"RAND","Freerider","grouptype_is_mixed",0,35,25,8.33333333333333,12.5,59.468818288788,1,40.3440354121141,"MEDIUM","LOW_STRAT",1
"432",167,"56","160324_1558",23,4,"RAND","Others","grouptype_is_mixed",7,35.2,37,12.3333333333333,15,52.6777609682299,1,56.0150165293887,"HIGH","HIGH_STRAT",2
"433",8,"8","160321_1143",8,5,"STRAT","CondCoop","grouptype_is_mixed",11,27.6,31,10.3333333333333,10,29.1518737672584,0,25.2991452991453,"LOW","LOW_STRAT",1
"434",111,"39","160323_1352",15,5,"PREF","Others","Others",0,20,0,0,0,76.0053981106613,1,55.1896836107362,"HIGH","HIGH_STRAT",1
"435",44,"13","160321_1405",20,5,"STRAT","CondCoop","grouptype_is_mixed",8,27,25,8.33333333333333,8.5,40.180790960452,0,40.8612680477087,"MEDIUM","LOW_STRAT",3
"436",15,"7","160321_1143",15,5,"STRAT","CondCoop","grouptype_is_mixed",5,27.6,21,7,8,32.3734385272847,0,33.5218058294981,"LOW","LOW_STRAT",2
"437",21,"1","160321_1143",21,5,"STRAT","CondCoop","grouptype_is_mixed",11,24.6,26,8.66666666666667,7.5,69.5069033530572,1,63.2719701950471,"HIGH","HIGH_STRAT",1
"438",63,"24","160321_1553",15,5,"STRAT","Others","grouptype_is_mixed",0,35,25,8.33333333333333,12.5,6.66666666666667,0,4.44444444444444,"LOW","LOW_STRAT",2
"439",125,"43","160323_1557",5,5,"PREF","Freerider","Freerider",2,19.2,2,0.666666666666667,0,20,0,23.0750307503075,"LOW","LOW_STRAT",1
"440",100,"35","160323_1352",4,5,"PREF","Freerider","Freerider",0,20,0,0,0,27.719298245614,0,35.6125356125356,"LOW","LOW_STRAT",2
"441",2,"5","160321_1143",2,5,"STRAT","UncondCoop","grouptype_is_mixed",20,30,50,16.6666666666667,15,41.5121630506246,0,42.4326101249178,"MEDIUM","HIGH_STRAT",1
"442",14,"1","160321_1143",14,5,"STRAT","Freerider","grouptype_is_mixed",8,27.6,26,8.66666666666667,9,82.0512820512821,1,63.2719701950471,"HIGH","HIGH_STRAT",3
"443",47,"14","160321_1405",23,5,"STRAT","Freerider","grouptype_is_mixed",5,22.8,13,4.33333333333333,4,31.5630885122411,0,35.1964846202134,"LOW","LOW_STRAT",2
"444",10,"5","160321_1143",10,5,"STRAT","CondCoop","grouptype_is_mixed",20,30,50,16.6666666666667,15,40.7889546351085,0,42.4326101249178,"MEDIUM","HIGH_STRAT",3
"445",142,"48","160323_1557",22,5,"PREF","Others","Others",17,30,45,15,14,47.4538745387454,1,41.003143364767,"MEDIUM","LOW_STRAT",1
"446",119,"33","160323_1352",23,5,"PREF","Freerider","Freerider",0,23.6,6,2,3,6.66666666666667,0,26.6276803118908,"LOW","LOW_STRAT",1
"447",151,"51","160324_1558",7,5,"RAND","Others","grouptype_is_mixed",0,26,10,3.33333333333333,5,6.66666666666667,0,34.9918753852188,"LOW","LOW_STRAT",2
"448",91,"25","160323_1155",19,5,"PREF","Freerider","Freerider",0,20,0,0,0,33.3333333333333,0,33.4343434343434,"LOW","LOW_STRAT",1
"449",113,"38","160323_1352",17,5,"PREF","Others","Others",0,29,15,5,7.5,60.6567701304543,1,48.349077822762,"MEDIUM","HIGH_STRAT",3
"450",38,"13","160321_1405",14,5,"STRAT","Others","grouptype_is_mixed",5,30,25,8.33333333333333,10,40.180790960452,0,40.8612680477087,"MEDIUM","LOW_STRAT",2
"451",70,"21","160321_1553",22,5,"STRAT","CondCoop","grouptype_is_mixed",18,20,30,10,6,44.9263721552878,1,43.0789825970549,"MEDIUM","HIGH_STRAT",1
"452",89,"32","160323_1155",17,5,"PREF","Freerider","grouptype_is_mixed",20,36,60,20,20,81.2121212121212,1,56.3299663299663,"HIGH","HIGH_STRAT",3
"453",11,"5","160321_1143",11,5,"STRAT","CondCoop","grouptype_is_mixed",10,40,50,16.6666666666667,20,44.9967126890204,1,42.4326101249178,"MEDIUM","HIGH_STRAT",2
"454",162,"54","160324_1558",18,5,"RAND","Others","grouptype_is_mixed",7,29.2,27,9,10,72.1129601613717,1,41.6271642292822,"MEDIUM","LOW_STRAT",1
"455",22,"7","160321_1143",22,5,"STRAT","Others","grouptype_is_mixed",8,24.6,21,7,6.5,31.1242603550296,0,33.5218058294981,"LOW","LOW_STRAT",1
"456",36,"12","160321_1405",12,5,"STRAT","Freerider","grouptype_is_mixed",2,28.2,17,5.66666666666667,7.5,47.0659133709981,1,38.4406779661017,"MEDIUM","LOW_STRAT",3
"457",157,"53","160324_1558",13,5,"RAND","Freerider","grouptype_is_mixed",0,20,0,0,0,50.4555387460077,1,35.6709811172746,"LOW","LOW_STRAT",2
"458",30,"11","160321_1405",6,5,"STRAT","UncondCoop","grouptype_is_mixed",4,18.4,4,1.33333333333333,0,55.1939736346516,1,48.9642184557439,"HIGH","HIGH_STRAT",3
"459",41,"13","160321_1405",17,5,"STRAT","Freerider","grouptype_is_mixed",12,23,25,8.33333333333333,6.5,42.2222222222222,0,40.8612680477087,"MEDIUM","LOW_STRAT",1
"460",18,"6","160321_1143",18,5,"STRAT","Freerider","grouptype_is_mixed",5,24,15,5,5,39.0401051939514,0,38.7332895025203,"MEDIUM","LOW_STRAT",3
"461",158,"53","160324_1558",14,5,"RAND","Freerider","grouptype_is_mixed",0,20,0,0,0,12.1129601613717,0,35.6709811172746,"LOW","LOW_STRAT",3
"462",145,"49","160324_1558",1,5,"RAND","Freerider","grouptype_is_mixed",0,30.2,17,5.66666666666667,8.5,59.468818288788,1,40.3440354121141,"MEDIUM","LOW_STRAT",1
"463",45,"15","160321_1405",21,5,"STRAT","CondCoop","grouptype_is_mixed",0,20,0,0,0,31.1111111111111,0,30.7746390458255,"LOW","LOW_STRAT",1
"464",122,"43","160323_1557",2,5,"PREF","Freerider","Freerider",0,21.2,2,0.666666666666667,1,35.8917589175892,0,23.0750307503075,"LOW","LOW_STRAT",2
"465",39,"14","160321_1405",15,5,"STRAT","CondCoop","grouptype_is_mixed",5,22.8,13,4.33333333333333,4,34.8173258003767,0,35.1964846202134,"LOW","LOW_STRAT",1
"466",87,"32","160323_1155",15,5,"PREF","Freerider","grouptype_is_mixed",20,36,60,20,20,44.4444444444444,1,56.3299663299663,"HIGH","HIGH_STRAT",1
"467",55,"23","160321_1553",7,5,"STRAT","Freerider","grouptype_is_mixed",0,39.8,33,11,16.5,24.4444444444444,0,22.9808121374386,"LOW","LOW_STRAT",3
"468",85,"31","160323_1155",13,5,"PREF","Others","Others",18,30.8,48,16,15,55.3535353535353,1,48.8552188552189,"MEDIUM","HIGH_STRAT",1
"469",95,"31","160323_1155",23,5,"PREF","Others","Others",17,31.8,48,16,15.5,67.979797979798,1,48.8552188552189,"MEDIUM","HIGH_STRAT",3
"470",114,"38","160323_1352",18,5,"PREF","Others","Others",5,24,15,5,5,44.3364822312191,1,48.349077822762,"MEDIUM","HIGH_STRAT",2
"471",98,"40","160323_1352",2,5,"PREF","Freerider","grouptype_is_mixed",10,23.2,22,7.33333333333333,6,58.2276203328835,1,46.3967611336032,"MEDIUM","HIGH_STRAT",3
"472",150,"50","160324_1558",6,5,"RAND","CondCoop","grouptype_is_mixed",20,12,20,6.66666666666667,0,54.5234493192133,1,44.0376533871239,"MEDIUM","HIGH_STRAT",3
"473",50,"23","160321_1553",2,5,"STRAT","CondCoop","grouptype_is_mixed",15,24.8,33,11,9,20.3212851405622,0,22.9808121374386,"LOW","LOW_STRAT",1
"474",160,"54","160324_1558",16,5,"RAND","Freerider","grouptype_is_mixed",10,26.2,27,9,8.5,21.19011598588,0,41.6271642292822,"MEDIUM","LOW_STRAT",2
"475",134,"48","160323_1557",14,5,"PREF","Others","Others",15,32,45,15,15,35.5555555555556,0,41.003143364767,"MEDIUM","LOW_STRAT",2
"476",54,"24","160321_1553",6,5,"STRAT","Others","grouptype_is_mixed",20,15,25,8.33333333333333,2.5,6.66666666666667,0,4.44444444444444,"LOW","LOW_STRAT",3
"477",177,"59","160329_1355",9,5,"RAND","Freerider","grouptype_is_mixed",0,30.8,18,6,9,12.5731473885699,0,18.6680035244432,"LOW","LOW_STRAT",1
"478",121,"42","160323_1557",1,5,"PREF","Freerider","Freerider",20,30.6,51,17,15.5,77.0561705617056,1,53.9702063687304,"HIGH","HIGH_STRAT",2
"479",168,"56","160324_1558",24,5,"RAND","CondCoop","grouptype_is_mixed",0,32,20,6.66666666666667,10,72.5836275004202,1,56.0150165293887,"HIGH","HIGH_STRAT",1
"480",31,"11","160321_1405",7,5,"STRAT","Freerider","grouptype_is_mixed",0,22.4,4,1.33333333333333,2,59.2617702448211,1,48.9642184557439,"HIGH","HIGH_STRAT",2
"481",176,"59","160329_1355",8,5,"RAND","Others","grouptype_is_mixed",8,22.8,18,6,5,21.7154315923799,0,18.6680035244432,"LOW","LOW_STRAT",2
"482",80,"25","160323_1155",8,5,"PREF","Freerider","Freerider",0,20,0,0,0,30.3030303030303,0,33.4343434343434,"LOW","LOW_STRAT",2
"483",120,"33","160323_1352",24,5,"PREF","Freerider","Freerider",0,23.6,6,2,3,47.9262258209627,1,26.6276803118908,"LOW","LOW_STRAT",2
"484",182,"61","160329_1355",14,5,"RAND","CondCoop","grouptype_is_mixed",0,26,10,3.33333333333333,5,30.5842676146204,0,48.8171846990551,"MEDIUM","HIGH_STRAT",3
"485",107,"39","160323_1352",11,5,"PREF","Others","Others",0,20,0,0,0,53.9901034637877,1,55.1896836107362,"HIGH","HIGH_STRAT",2
"486",185,"62","160329_1355",17,5,"RAND","CondCoop","grouptype_is_mixed",10,31.6,36,12,13,33.5283930361863,0,39.3242791602103,"MEDIUM","LOW_STRAT",1
"487",147,"49","160324_1558",3,5,"RAND","CondCoop","grouptype_is_mixed",15,15.2,17,5.66666666666667,1,49.4503277861826,1,40.3440354121141,"MEDIUM","LOW_STRAT",2
"488",43,"12","160321_1405",19,5,"STRAT","CondCoop","grouptype_is_mixed",5,25.2,17,5.66666666666667,6,24.1280602636535,0,38.4406779661017,"MEDIUM","LOW_STRAT",2
"489",20,"7","160321_1143",20,5,"STRAT","CondCoop","grouptype_is_mixed",8,24.6,21,7,6.5,37.0677186061801,0,33.5218058294981,"LOW","LOW_STRAT",3
"490",163,"55","160324_1558",19,5,"RAND","CondCoop","grouptype_is_mixed",20,36,60,20,20,17.7777777777778,0,36.097943631983,"LOW","LOW_STRAT",1
"491",144,"43","160323_1557",24,5,"PREF","Freerider","Freerider",0,21.2,2,0.666666666666667,1,13.3333333333333,0,23.0750307503075,"LOW","LOW_STRAT",3
"492",174,"58","160329_1355",6,5,"RAND","Freerider","grouptype_is_mixed",0,23.6,6,2,3,13.3333333333333,0,37.9564305897366,"MEDIUM","LOW_STRAT",3
"493",129,"42","160323_1557",9,5,"PREF","Freerider","Freerider",15,35.6,51,17,18,63.7720377203772,1,53.9702063687304,"HIGH","HIGH_STRAT",3
"494",42,"11","160321_1405",18,5,"STRAT","CondCoop","grouptype_is_mixed",0,22.4,4,1.33333333333333,2,32.4369114877589,0,48.9642184557439,"HIGH","HIGH_STRAT",1
"495",104,"35","160323_1352",8,5,"PREF","Freerider","Freerider",0,20,0,0,0,55.4475933423302,1,35.6125356125356,"LOW","LOW_STRAT",1
"496",79,"31","160323_1155",7,5,"PREF","Others","Others",13,35.8,48,16,17.5,23.2323232323232,0,48.8552188552189,"MEDIUM","HIGH_STRAT",2
"497",175,"59","160329_1355",7,5,"RAND","Others","grouptype_is_mixed",10,20.8,18,6,4,21.7154315923799,0,18.6680035244432,"LOW","LOW_STRAT",3
"498",37,"12","160321_1405",13,5,"STRAT","Freerider","grouptype_is_mixed",10,20.2,17,5.66666666666667,3.5,44.1280602636535,1,38.4406779661017,"MEDIUM","LOW_STRAT",1
"499",24,"1","160321_1143",24,5,"STRAT","CondCoop","grouptype_is_mixed",7,28.6,26,8.66666666666667,9.5,38.2577251808021,0,63.2719701950471,"HIGH","HIGH_STRAT",2
"500",112,"33","160323_1352",16,5,"PREF","Freerider","Freerider",6,17.6,6,2,0,25.2901484480432,0,26.6276803118908,"LOW","LOW_STRAT",3
"501",184,"62","160329_1355",16,5,"RAND","Freerider","grouptype_is_mixed",16,25.6,36,12,10,55.5555555555556,1,39.3242791602103,"MEDIUM","LOW_STRAT",2
"502",97,"40","160323_1352",1,5,"PREF","CondCoop","grouptype_is_mixed",2,31.2,22,7.33333333333333,10,44.0665766981556,1,46.3967611336032,"MEDIUM","HIGH_STRAT",2
"503",58,"23","160321_1553",10,5,"STRAT","Others","grouptype_is_mixed",18,21.8,33,11,7.5,24.1767068273092,0,22.9808121374386,"LOW","LOW_STRAT",2
"504",105,"38","160323_1352",9,5,"PREF","Others","Others",10,19,15,5,2.5,40.0539811066127,0,48.349077822762,"MEDIUM","HIGH_STRAT",1
"505",12,"6","160321_1143",12,5,"STRAT","Freerider","grouptype_is_mixed",0,29,15,5,7.5,38.1459566074951,0,38.7332895025203,"MEDIUM","LOW_STRAT",1
"506",153,"51","160324_1558",9,5,"RAND","CondCoop","grouptype_is_mixed",5,21,10,3.33333333333333,2.5,53.7098672045722,1,34.9918753852188,"LOW","LOW_STRAT",3
"507",183,"61","160329_1355",15,5,"RAND","CondCoop","grouptype_is_mixed",10,16,10,3.33333333333333,0,60.6726825266612,1,48.8171846990551,"MEDIUM","HIGH_STRAT",1
"508",57,"22","160321_1553",9,5,"STRAT","CondCoop","grouptype_is_mixed",15,17,20,6.66666666666667,2.5,25.4082998661312,0,30.2275769745649,"LOW","LOW_STRAT",1
"509",6,"8","160321_1143",6,5,"STRAT","Freerider","grouptype_is_mixed",5,33.6,31,10.3333333333333,13,20.0788954635109,0,25.2991452991453,"LOW","LOW_STRAT",3
"510",167,"56","160324_1558",23,5,"RAND","Others","grouptype_is_mixed",5,27,20,6.66666666666667,7.5,52.6777609682299,1,56.0150165293887,"HIGH","HIGH_STRAT",2
"511",173,"58","160329_1355",5,5,"RAND","CondCoop","grouptype_is_mixed",0,23.6,6,2,3,37.8944490019141,0,37.9564305897366,"MEDIUM","LOW_STRAT",1
"512",35,"15","160321_1405",11,5,"STRAT","Freerider","grouptype_is_mixed",0,20,0,0,0,30.7947269303201,0,30.7746390458255,"LOW","LOW_STRAT",2
"513",68,"24","160321_1553",20,5,"STRAT","CondCoop","grouptype_is_mixed",5,30,25,8.33333333333333,10,0,0,4.44444444444444,"LOW","LOW_STRAT",1
"514",65,"22","160321_1553",17,5,"STRAT","Others","grouptype_is_mixed",5,27,20,6.66666666666667,7.5,39.8661311914324,0,30.2275769745649,"LOW","LOW_STRAT",3
"515",88,"32","160323_1155",16,5,"PREF","UncondCoop","grouptype_is_mixed",20,36,60,20,20,43.3333333333333,0,56.3299663299663,"HIGH","HIGH_STRAT",2
"516",166,"56","160324_1558",22,5,"RAND","CondCoop","grouptype_is_mixed",15,17,20,6.66666666666667,2.5,42.7836611195159,0,56.0150165293887,"HIGH","HIGH_STRAT",3
"517",143,"48","160323_1557",23,5,"PREF","Others","Others",13,34,45,15,16,40,0,41.003143364767,"MEDIUM","LOW_STRAT",3
"518",146,"49","160324_1558",2,5,"RAND","Others","grouptype_is_mixed",2,28.2,17,5.66666666666667,7.5,12.1129601613717,0,40.3440354121141,"MEDIUM","LOW_STRAT",3
"519",181,"61","160329_1355",13,5,"RAND","Freerider","grouptype_is_mixed",0,26,10,3.33333333333333,5,55.1946039558837,1,48.8171846990551,"MEDIUM","HIGH_STRAT",2
"520",40,"15","160321_1405",16,5,"STRAT","Freerider","grouptype_is_mixed",0,20,0,0,0,30.4180790960452,0,30.7746390458255,"LOW","LOW_STRAT",3
"521",164,"55","160324_1558",20,5,"RAND","Others","grouptype_is_mixed",20,36,60,20,20,47.2281055639603,1,36.097943631983,"LOW","LOW_STRAT",3
"522",148,"50","160324_1558",4,5,"RAND","CondCoop","grouptype_is_mixed",0,32,20,6.66666666666667,10,39.3444276348966,0,44.0376533871239,"MEDIUM","HIGH_STRAT",2
"523",25,"14","160321_1405",1,5,"STRAT","Others","grouptype_is_mixed",3,24.8,13,4.33333333333333,5,39.2090395480226,0,35.1964846202134,"LOW","LOW_STRAT",3
"524",56,"21","160321_1553",8,5,"STRAT","Others","grouptype_is_mixed",0,38,30,10,15,39.8661311914324,0,43.0789825970549,"MEDIUM","HIGH_STRAT",2
"525",161,"54","160324_1558",17,5,"RAND","CondCoop","grouptype_is_mixed",10,26.2,27,9,8.5,31.5784165405951,0,41.6271642292822,"MEDIUM","LOW_STRAT",3
"526",186,"62","160329_1355",18,5,"RAND","CondCoop","grouptype_is_mixed",10,31.6,36,12,13,28.8888888888889,0,39.3242791602103,"MEDIUM","LOW_STRAT",3
"527",108,"35","160323_1352",12,5,"PREF","Freerider","Freerider",0,20,0,0,0,23.6707152496626,0,35.6125356125356,"LOW","LOW_STRAT",3
"528",138,"42","160323_1557",18,5,"PREF","Freerider","Freerider",16,34.6,51,17,17.5,21.0824108241082,0,53.9702063687304,"HIGH","HIGH_STRAT",1
"529",149,"50","160324_1558",5,5,"RAND","Freerider","grouptype_is_mixed",0,32,20,6.66666666666667,10,38.2450832072617,0,44.0376533871239,"MEDIUM","HIGH_STRAT",1
"530",152,"51","160324_1558",8,5,"RAND","CondCoop","grouptype_is_mixed",5,21,10,3.33333333333333,2.5,44.5990922844176,1,34.9918753852188,"LOW","LOW_STRAT",1
"531",116,"40","160323_1352",20,5,"PREF","CondCoop","grouptype_is_mixed",10,23.2,22,7.33333333333333,6,36.8960863697706,0,46.3967611336032,"MEDIUM","HIGH_STRAT",1
"532",84,"25","160323_1155",12,5,"PREF","Freerider","Freerider",0,20,0,0,0,36.6666666666667,0,33.4343434343434,"LOW","LOW_STRAT",3
"533",67,"21","160321_1553",19,5,"STRAT","Freerider","grouptype_is_mixed",12,26,30,10,9,44.4444444444444,1,43.0789825970549,"MEDIUM","HIGH_STRAT",3
"534",159,"53","160324_1558",15,5,"RAND","Others","grouptype_is_mixed",0,20,0,0,0,44.4444444444444,1,35.6709811172746,"LOW","LOW_STRAT",1
"535",101,"39","160323_1352",5,5,"PREF","Others","Others",0,20,0,0,0,35.5735492577598,0,55.1896836107362,"HIGH","HIGH_STRAT",3
"536",23,"6","160321_1143",23,5,"STRAT","CondCoop","grouptype_is_mixed",10,19,15,5,2.5,39.0138067061144,0,38.7332895025203,"MEDIUM","LOW_STRAT",2
"537",60,"22","160321_1553",12,5,"STRAT","Freerider","grouptype_is_mixed",0,32,20,6.66666666666667,10,25.4082998661312,0,30.2275769745649,"LOW","LOW_STRAT",2
"538",172,"58","160329_1355",4,5,"RAND","CondCoop","grouptype_is_mixed",6,17.6,6,2,0,62.6415094339623,1,37.9564305897366,"MEDIUM","LOW_STRAT",2
"539",165,"55","160324_1558",21,5,"RAND","Freerider","grouptype_is_mixed",20,36,60,20,20,43.2879475542108,0,36.097943631983,"LOW","LOW_STRAT",2
"540",9,"8","160321_1143",9,5,"STRAT","UncondCoop","grouptype_is_mixed",15,23.6,31,10.3333333333333,8,26.6666666666667,0,25.2991452991453,"LOW","LOW_STRAT",2
"541",104,"35","160323_1352",8,6,"PREF","Freerider","Freerider",0,20.6,1,0.333333333333333,0.5,55.4475933423302,1,35.6125356125356,"LOW","LOW_STRAT",1
"542",14,"1","160321_1143",14,6,"STRAT","Freerider","grouptype_is_mixed",8,21,15,5,3.5,82.0512820512821,1,63.2719701950471,"HIGH","HIGH_STRAT",3
"543",111,"39","160323_1352",15,6,"PREF","Others","Others",10,28,30,10,10,76.0053981106613,1,55.1896836107362,"HIGH","HIGH_STRAT",1
"544",40,"15","160321_1405",16,6,"STRAT","Freerider","grouptype_is_mixed",0,20,0,0,0,30.4180790960452,0,30.7746390458255,"LOW","LOW_STRAT",3
"545",21,"1","160321_1143",21,6,"STRAT","CondCoop","grouptype_is_mixed",0,29,15,5,7.5,69.5069033530572,1,63.2719701950471,"HIGH","HIGH_STRAT",1
"546",60,"22","160321_1553",12,6,"STRAT","Freerider","grouptype_is_mixed",0,29,15,5,7.5,25.4082998661312,0,30.2275769745649,"LOW","LOW_STRAT",2
"547",30,"11","160321_1405",6,6,"STRAT","UncondCoop","grouptype_is_mixed",0,22.4,4,1.33333333333333,2,55.1939736346516,1,48.9642184557439,"HIGH","HIGH_STRAT",3
"548",184,"62","160329_1355",16,6,"RAND","Freerider","grouptype_is_mixed",18,27.2,42,14,12,55.5555555555556,1,39.3242791602103,"MEDIUM","LOW_STRAT",2
"549",41,"13","160321_1405",17,6,"STRAT","Freerider","grouptype_is_mixed",0,29,15,5,7.5,42.2222222222222,0,40.8612680477087,"MEDIUM","LOW_STRAT",1
"550",39,"14","160321_1405",15,6,"STRAT","CondCoop","grouptype_is_mixed",2,25.8,13,4.33333333333333,5.5,34.8173258003767,0,35.1964846202134,"LOW","LOW_STRAT",1
"551",105,"38","160323_1352",9,6,"PREF","Others","Others",0,20,0,0,0,40.0539811066127,0,48.349077822762,"MEDIUM","HIGH_STRAT",1
"552",148,"50","160324_1558",4,6,"RAND","CondCoop","grouptype_is_mixed",7,17.2,7,2.33333333333333,0,39.3444276348966,0,44.0376533871239,"MEDIUM","HIGH_STRAT",2
"553",50,"23","160321_1553",2,6,"STRAT","CondCoop","grouptype_is_mixed",18,24.8,38,12.6666666666667,10,20.3212851405622,0,22.9808121374386,"LOW","LOW_STRAT",1
"554",176,"59","160329_1355",8,6,"RAND","Others","grouptype_is_mixed",8,21.6,16,5.33333333333333,4,21.7154315923799,0,18.6680035244432,"LOW","LOW_STRAT",2
"555",31,"11","160321_1405",7,6,"STRAT","Freerider","grouptype_is_mixed",0,22.4,4,1.33333333333333,2,59.2617702448211,1,48.9642184557439,"HIGH","HIGH_STRAT",2
"556",108,"35","160323_1352",12,6,"PREF","Freerider","Freerider",1,19.6,1,0.333333333333333,0,23.6707152496626,0,35.6125356125356,"LOW","LOW_STRAT",3
"557",43,"12","160321_1405",19,6,"STRAT","CondCoop","grouptype_is_mixed",5,19.8,8,2.66666666666667,1.5,24.1280602636535,0,38.4406779661017,"MEDIUM","LOW_STRAT",2
"558",143,"48","160323_1557",23,6,"PREF","Others","Others",10,31,35,11.6666666666667,12.5,40,0,41.003143364767,"MEDIUM","LOW_STRAT",3
"559",129,"42","160323_1557",9,6,"PREF","Freerider","Freerider",8,40.8,48,16,20,63.7720377203772,1,53.9702063687304,"HIGH","HIGH_STRAT",3
"560",2,"5","160321_1143",2,6,"STRAT","UncondCoop","grouptype_is_mixed",20,30,50,16.6666666666667,15,41.5121630506246,0,42.4326101249178,"MEDIUM","HIGH_STRAT",1
"561",10,"5","160321_1143",10,6,"STRAT","CondCoop","grouptype_is_mixed",20,30,50,16.6666666666667,15,40.7889546351085,0,42.4326101249178,"MEDIUM","HIGH_STRAT",3
"562",80,"25","160323_1155",8,6,"PREF","Freerider","Freerider",0,23,5,1.66666666666667,2.5,30.3030303030303,0,33.4343434343434,"LOW","LOW_STRAT",2
"563",95,"31","160323_1155",23,6,"PREF","Others","Others",19,26.2,42,14,11.5,67.979797979798,1,48.8552188552189,"MEDIUM","HIGH_STRAT",3
"564",173,"58","160329_1355",5,6,"RAND","CondCoop","grouptype_is_mixed",0,24.8,8,2.66666666666667,4,37.8944490019141,0,37.9564305897366,"MEDIUM","LOW_STRAT",1
"565",167,"56","160324_1558",23,6,"RAND","Others","grouptype_is_mixed",10,29.8,33,11,11.5,52.6777609682299,1,56.0150165293887,"HIGH","HIGH_STRAT",2
"566",36,"12","160321_1405",12,6,"STRAT","Freerider","grouptype_is_mixed",3,21.8,8,2.66666666666667,2.5,47.0659133709981,1,38.4406779661017,"MEDIUM","LOW_STRAT",3
"567",121,"42","160323_1557",1,6,"PREF","Freerider","Freerider",20,28.8,48,16,14,77.0561705617056,1,53.9702063687304,"HIGH","HIGH_STRAT",2
"568",44,"13","160321_1405",20,6,"STRAT","CondCoop","grouptype_is_mixed",8,21,15,5,3.5,40.180790960452,0,40.8612680477087,"MEDIUM","LOW_STRAT",3
"569",165,"55","160324_1558",21,6,"RAND","Freerider","grouptype_is_mixed",20,36,60,20,20,43.2879475542108,0,36.097943631983,"LOW","LOW_STRAT",2
"570",45,"15","160321_1405",21,6,"STRAT","CondCoop","grouptype_is_mixed",0,20,0,0,0,31.1111111111111,0,30.7746390458255,"LOW","LOW_STRAT",1
"571",122,"43","160323_1557",2,6,"PREF","Freerider","Freerider",0,20,0,0,0,35.8917589175892,0,23.0750307503075,"LOW","LOW_STRAT",2
"572",88,"32","160323_1155",16,6,"PREF","UncondCoop","grouptype_is_mixed",20,36,60,20,20,43.3333333333333,0,56.3299663299663,"HIGH","HIGH_STRAT",2
"573",58,"23","160321_1553",10,6,"STRAT","Others","grouptype_is_mixed",0,42.8,38,12.6666666666667,19,24.1767068273092,0,22.9808121374386,"LOW","LOW_STRAT",2
"574",56,"21","160321_1553",8,6,"STRAT","Others","grouptype_is_mixed",1,28.6,16,5.33333333333333,7.5,39.8661311914324,0,43.0789825970549,"MEDIUM","HIGH_STRAT",2
"575",67,"21","160321_1553",19,6,"STRAT","Freerider","grouptype_is_mixed",0,29.6,16,5.33333333333333,8,44.4444444444444,1,43.0789825970549,"MEDIUM","HIGH_STRAT",3
"576",101,"39","160323_1352",5,6,"PREF","Others","Others",20,18,30,10,5,35.5735492577598,0,55.1896836107362,"HIGH","HIGH_STRAT",3
"577",172,"58","160329_1355",4,6,"RAND","CondCoop","grouptype_is_mixed",8,16.8,8,2.66666666666667,0,62.6415094339623,1,37.9564305897366,"MEDIUM","LOW_STRAT",2
"578",22,"7","160321_1143",22,6,"STRAT","Others","grouptype_is_mixed",7,22,15,5,4,31.1242603550296,0,33.5218058294981,"LOW","LOW_STRAT",1
"579",47,"14","160321_1405",23,6,"STRAT","Freerider","grouptype_is_mixed",5,22.8,13,4.33333333333333,4,31.5630885122411,0,35.1964846202134,"LOW","LOW_STRAT",2
"580",15,"7","160321_1143",15,6,"STRAT","CondCoop","grouptype_is_mixed",3,26,15,5,6,32.3734385272847,0,33.5218058294981,"LOW","LOW_STRAT",2
"581",157,"53","160324_1558",13,6,"RAND","Freerider","grouptype_is_mixed",0,20,0,0,0,50.4555387460077,1,35.6709811172746,"LOW","LOW_STRAT",2
"582",6,"8","160321_1143",6,6,"STRAT","Freerider","grouptype_is_mixed",12,32.6,41,13.6666666666667,14.5,20.0788954635109,0,25.2991452991453,"LOW","LOW_STRAT",3
"583",89,"32","160323_1155",17,6,"PREF","Freerider","grouptype_is_mixed",20,36,60,20,20,81.2121212121212,1,56.3299663299663,"HIGH","HIGH_STRAT",3
"584",153,"51","160324_1558",9,6,"RAND","CondCoop","grouptype_is_mixed",10,22,20,6.66666666666667,5,53.7098672045722,1,34.9918753852188,"LOW","LOW_STRAT",3
"585",120,"33","160323_1352",24,6,"PREF","Freerider","Freerider",0,23,5,1.66666666666667,2.5,47.9262258209627,1,26.6276803118908,"LOW","LOW_STRAT",2
"586",84,"25","160323_1155",12,6,"PREF","Freerider","Freerider",5,18,5,1.66666666666667,0,36.6666666666667,0,33.4343434343434,"LOW","LOW_STRAT",3
"587",164,"55","160324_1558",20,6,"RAND","Others","grouptype_is_mixed",20,36,60,20,20,47.2281055639603,1,36.097943631983,"LOW","LOW_STRAT",3
"588",65,"22","160321_1553",17,6,"STRAT","Others","grouptype_is_mixed",10,19,15,5,2.5,39.8661311914324,0,30.2275769745649,"LOW","LOW_STRAT",3
"589",38,"13","160321_1405",14,6,"STRAT","Others","grouptype_is_mixed",7,22,15,5,4,40.180790960452,0,40.8612680477087,"MEDIUM","LOW_STRAT",2
"590",68,"24","160321_1553",20,6,"STRAT","CondCoop","grouptype_is_mixed",10,16,10,3.33333333333333,0,0,0,4.44444444444444,"LOW","LOW_STRAT",1
"591",25,"14","160321_1405",1,6,"STRAT","Others","grouptype_is_mixed",6,21.8,13,4.33333333333333,3.5,39.2090395480226,0,35.1964846202134,"LOW","LOW_STRAT",3
"592",55,"23","160321_1553",7,6,"STRAT","Freerider","grouptype_is_mixed",20,22.8,38,12.6666666666667,9,24.4444444444444,0,22.9808121374386,"LOW","LOW_STRAT",3
"593",112,"33","160323_1352",16,6,"PREF","Freerider","Freerider",4,19,5,1.66666666666667,0.5,25.2901484480432,0,26.6276803118908,"LOW","LOW_STRAT",3
"594",18,"6","160321_1143",18,6,"STRAT","Freerider","grouptype_is_mixed",5,19.8,8,2.66666666666667,1.5,39.0401051939514,0,38.7332895025203,"MEDIUM","LOW_STRAT",3
"595",134,"48","160323_1557",14,6,"PREF","Others","Others",15,26,35,11.6666666666667,10,35.5555555555556,0,41.003143364767,"MEDIUM","LOW_STRAT",2
"596",63,"24","160321_1553",15,6,"STRAT","Others","grouptype_is_mixed",0,26,10,3.33333333333333,5,6.66666666666667,0,4.44444444444444,"LOW","LOW_STRAT",2
"597",163,"55","160324_1558",19,6,"RAND","CondCoop","grouptype_is_mixed",20,36,60,20,20,17.7777777777778,0,36.097943631983,"LOW","LOW_STRAT",1
"598",125,"43","160323_1557",5,6,"PREF","Freerider","Freerider",0,20,0,0,0,20,0,23.0750307503075,"LOW","LOW_STRAT",1
"599",142,"48","160323_1557",22,6,"PREF","Others","Others",10,31,35,11.6666666666667,12.5,47.4538745387454,1,41.003143364767,"MEDIUM","LOW_STRAT",1
"600",144,"43","160323_1557",24,6,"PREF","Freerider","Freerider",0,20,0,0,0,13.3333333333333,0,23.0750307503075,"LOW","LOW_STRAT",3
"601",91,"25","160323_1155",19,6,"PREF","Freerider","Freerider",0,23,5,1.66666666666667,2.5,33.3333333333333,0,33.4343434343434,"LOW","LOW_STRAT",1
"602",113,"38","160323_1352",17,6,"PREF","Others","Others",0,20,0,0,0,60.6567701304543,1,48.349077822762,"MEDIUM","HIGH_STRAT",3
"603",146,"49","160324_1558",2,6,"RAND","Others","grouptype_is_mixed",10,16,10,3.33333333333333,0,12.1129601613717,0,40.3440354121141,"MEDIUM","LOW_STRAT",3
"604",12,"6","160321_1143",12,6,"STRAT","Freerider","grouptype_is_mixed",0,24.8,8,2.66666666666667,4,38.1459566074951,0,38.7332895025203,"MEDIUM","LOW_STRAT",1
"605",23,"6","160321_1143",23,6,"STRAT","CondCoop","grouptype_is_mixed",3,21.8,8,2.66666666666667,2.5,39.0138067061144,0,38.7332895025203,"MEDIUM","LOW_STRAT",2
"606",9,"8","160321_1143",9,6,"STRAT","UncondCoop","grouptype_is_mixed",18,26.6,41,13.6666666666667,11.5,26.6666666666667,0,25.2991452991453,"LOW","LOW_STRAT",2
"607",116,"40","160323_1352",20,6,"PREF","CondCoop","grouptype_is_mixed",5,31.2,27,9,11,36.8960863697706,0,46.3967611336032,"MEDIUM","HIGH_STRAT",1
"608",20,"7","160321_1143",20,6,"STRAT","CondCoop","grouptype_is_mixed",5,24,15,5,5,37.0677186061801,0,33.5218058294981,"LOW","LOW_STRAT",3
"609",181,"61","160329_1355",13,6,"RAND","Freerider","grouptype_is_mixed",0,23,5,1.66666666666667,2.5,55.1946039558837,1,48.8171846990551,"MEDIUM","HIGH_STRAT",2
"610",8,"8","160321_1143",8,6,"STRAT","CondCoop","grouptype_is_mixed",11,33.6,41,13.6666666666667,15,29.1518737672584,0,25.2991452991453,"LOW","LOW_STRAT",1
"611",85,"31","160323_1155",13,6,"PREF","Others","Others",15,30.2,42,14,13.5,55.3535353535353,1,48.8552188552189,"MEDIUM","HIGH_STRAT",1
"612",160,"54","160324_1558",16,6,"RAND","Freerider","grouptype_is_mixed",10,25,25,8.33333333333333,7.5,21.19011598588,0,41.6271642292822,"MEDIUM","LOW_STRAT",2
"613",119,"33","160323_1352",23,6,"PREF","Freerider","Freerider",1,22,5,1.66666666666667,2,6.66666666666667,0,26.6276803118908,"LOW","LOW_STRAT",1
"614",11,"5","160321_1143",11,6,"STRAT","CondCoop","grouptype_is_mixed",10,40,50,16.6666666666667,20,44.9967126890204,1,42.4326101249178,"MEDIUM","HIGH_STRAT",2
"615",107,"39","160323_1352",11,6,"PREF","Others","Others",0,38,30,10,15,53.9901034637877,1,55.1896836107362,"HIGH","HIGH_STRAT",2
"616",100,"35","160323_1352",4,6,"PREF","Freerider","Freerider",0,20.6,1,0.333333333333333,0.5,27.719298245614,0,35.6125356125356,"LOW","LOW_STRAT",2
"617",42,"11","160321_1405",18,6,"STRAT","CondCoop","grouptype_is_mixed",4,18.4,4,1.33333333333333,0,32.4369114877589,0,48.9642184557439,"HIGH","HIGH_STRAT",1
"618",97,"40","160323_1352",1,6,"PREF","CondCoop","grouptype_is_mixed",2,34.2,27,9,12.5,44.0665766981556,1,46.3967611336032,"MEDIUM","HIGH_STRAT",2
"619",152,"51","160324_1558",8,6,"RAND","CondCoop","grouptype_is_mixed",10,22,20,6.66666666666667,5,44.5990922844176,1,34.9918753852188,"LOW","LOW_STRAT",1
"620",159,"53","160324_1558",15,6,"RAND","Others","grouptype_is_mixed",0,20,0,0,0,44.4444444444444,1,35.6709811172746,"LOW","LOW_STRAT",1
"621",37,"12","160321_1405",13,6,"STRAT","Freerider","grouptype_is_mixed",0,24.8,8,2.66666666666667,4,44.1280602636535,1,38.4406779661017,"MEDIUM","LOW_STRAT",1
"622",87,"32","160323_1155",15,6,"PREF","Freerider","grouptype_is_mixed",20,36,60,20,20,44.4444444444444,1,56.3299663299663,"HIGH","HIGH_STRAT",1
"623",70,"21","160321_1553",22,6,"STRAT","CondCoop","grouptype_is_mixed",15,14.6,16,5.33333333333333,0.5,44.9263721552878,1,43.0789825970549,"MEDIUM","HIGH_STRAT",1
"624",150,"50","160324_1558",6,6,"RAND","CondCoop","grouptype_is_mixed",0,24.2,7,2.33333333333333,3.5,54.5234493192133,1,44.0376533871239,"MEDIUM","HIGH_STRAT",3
"625",138,"42","160323_1557",18,6,"PREF","Freerider","Freerider",20,28.8,48,16,14,21.0824108241082,0,53.9702063687304,"HIGH","HIGH_STRAT",1
"626",162,"54","160324_1558",18,6,"RAND","Others","grouptype_is_mixed",5,30,25,8.33333333333333,10,72.1129601613717,1,41.6271642292822,"MEDIUM","LOW_STRAT",1
"627",149,"50","160324_1558",5,6,"RAND","Freerider","grouptype_is_mixed",0,24.2,7,2.33333333333333,3.5,38.2450832072617,0,44.0376533871239,"MEDIUM","HIGH_STRAT",1
"628",98,"40","160323_1352",2,6,"PREF","Freerider","grouptype_is_mixed",20,16.2,27,9,3.5,58.2276203328835,1,46.3967611336032,"MEDIUM","HIGH_STRAT",3
"629",168,"56","160324_1558",24,6,"RAND","CondCoop","grouptype_is_mixed",10,29.8,33,11,11.5,72.5836275004202,1,56.0150165293887,"HIGH","HIGH_STRAT",1
"630",54,"24","160321_1553",6,6,"STRAT","Others","grouptype_is_mixed",0,26,10,3.33333333333333,5,6.66666666666667,0,4.44444444444444,"LOW","LOW_STRAT",3
"631",182,"61","160329_1355",14,6,"RAND","CondCoop","grouptype_is_mixed",5,18,5,1.66666666666667,0,30.5842676146204,0,48.8171846990551,"MEDIUM","HIGH_STRAT",3
"632",186,"62","160329_1355",18,6,"RAND","CondCoop","grouptype_is_mixed",12,33.2,42,14,15,28.8888888888889,0,39.3242791602103,"MEDIUM","LOW_STRAT",3
"633",166,"56","160324_1558",22,6,"RAND","CondCoop","grouptype_is_mixed",13,26.8,33,11,10,42.7836611195159,0,56.0150165293887,"HIGH","HIGH_STRAT",3
"634",175,"59","160329_1355",7,6,"RAND","Others","grouptype_is_mixed",6,23.6,16,5.33333333333333,5,21.7154315923799,0,18.6680035244432,"LOW","LOW_STRAT",3
"635",79,"31","160323_1155",7,6,"PREF","Others","Others",8,37.2,42,14,17,23.2323232323232,0,48.8552188552189,"MEDIUM","HIGH_STRAT",2
"636",145,"49","160324_1558",1,6,"RAND","Freerider","grouptype_is_mixed",0,26,10,3.33333333333333,5,59.468818288788,1,40.3440354121141,"MEDIUM","LOW_STRAT",1
"637",177,"59","160329_1355",9,6,"RAND","Freerider","grouptype_is_mixed",2,27.6,16,5.33333333333333,7,12.5731473885699,0,18.6680035244432,"LOW","LOW_STRAT",1
"638",183,"61","160329_1355",15,6,"RAND","CondCoop","grouptype_is_mixed",0,23,5,1.66666666666667,2.5,60.6726825266612,1,48.8171846990551,"MEDIUM","HIGH_STRAT",1
"639",151,"51","160324_1558",7,6,"RAND","Others","grouptype_is_mixed",0,32,20,6.66666666666667,10,6.66666666666667,0,34.9918753852188,"LOW","LOW_STRAT",2
"640",185,"62","160329_1355",17,6,"RAND","CondCoop","grouptype_is_mixed",12,33.2,42,14,15,33.5283930361863,0,39.3242791602103,"MEDIUM","LOW_STRAT",1
"641",158,"53","160324_1558",14,6,"RAND","Freerider","grouptype_is_mixed",0,20,0,0,0,12.1129601613717,0,35.6709811172746,"LOW","LOW_STRAT",3
"642",174,"58","160329_1355",6,6,"RAND","Freerider","grouptype_is_mixed",0,24.8,8,2.66666666666667,4,13.3333333333333,0,37.9564305897366,"MEDIUM","LOW_STRAT",3
"643",35,"15","160321_1405",11,6,"STRAT","Freerider","grouptype_is_mixed",0,20,0,0,0,30.7947269303201,0,30.7746390458255,"LOW","LOW_STRAT",2
"644",57,"22","160321_1553",9,6,"STRAT","CondCoop","grouptype_is_mixed",5,24,15,5,5,25.4082998661312,0,30.2275769745649,"LOW","LOW_STRAT",1
"645",161,"54","160324_1558",17,6,"RAND","CondCoop","grouptype_is_mixed",10,25,25,8.33333333333333,7.5,31.5784165405951,0,41.6271642292822,"MEDIUM","LOW_STRAT",3
"646",24,"1","160321_1143",24,6,"STRAT","CondCoop","grouptype_is_mixed",7,22,15,5,4,38.2577251808021,0,63.2719701950471,"HIGH","HIGH_STRAT",2
"647",114,"38","160323_1352",18,6,"PREF","Others","Others",0,20,0,0,0,44.3364822312191,1,48.349077822762,"MEDIUM","HIGH_STRAT",2
"648",147,"49","160324_1558",3,6,"RAND","CondCoop","grouptype_is_mixed",0,26,10,3.33333333333333,5,49.4503277861826,1,40.3440354121141,"MEDIUM","LOW_STRAT",2
"649",125,"43","160323_1557",5,7,"PREF","Freerider","Freerider",20,12,20,6.66666666666667,0,20,0,23.0750307503075,"LOW","LOW_STRAT",1
"650",158,"53","160324_1558",14,7,"RAND","Freerider","grouptype_is_mixed",0,20,0,0,0,12.1129601613717,0,35.6709811172746,"LOW","LOW_STRAT",3
"651",114,"38","160323_1352",18,7,"PREF","Others","Others",0,26,10,3.33333333333333,5,44.3364822312191,1,48.349077822762,"MEDIUM","HIGH_STRAT",2
"652",36,"12","160321_1405",12,7,"STRAT","Freerider","grouptype_is_mixed",0,23,5,1.66666666666667,2.5,47.0659133709981,1,38.4406779661017,"MEDIUM","LOW_STRAT",3
"653",111,"39","160323_1352",15,7,"PREF","Others","Others",15,20,25,8.33333333333333,5,76.0053981106613,1,55.1896836107362,"HIGH","HIGH_STRAT",1
"654",138,"42","160323_1557",18,7,"PREF","Freerider","Freerider",20,30,50,16.6666666666667,15,21.0824108241082,0,53.9702063687304,"HIGH","HIGH_STRAT",1
"655",144,"43","160323_1557",24,7,"PREF","Freerider","Freerider",0,32,20,6.66666666666667,10,13.3333333333333,0,23.0750307503075,"LOW","LOW_STRAT",3
"656",87,"32","160323_1155",15,7,"PREF","Freerider","grouptype_is_mixed",20,36,60,20,20,44.4444444444444,1,56.3299663299663,"HIGH","HIGH_STRAT",1
"657",14,"1","160321_1143",14,7,"STRAT","Freerider","grouptype_is_mixed",0,25.4,9,3,4.5,82.0512820512821,1,63.2719701950471,"HIGH","HIGH_STRAT",3
"658",148,"50","160324_1558",4,7,"RAND","CondCoop","grouptype_is_mixed",5,24,15,5,5,39.3444276348966,0,44.0376533871239,"MEDIUM","HIGH_STRAT",2
"659",20,"7","160321_1143",20,7,"STRAT","CondCoop","grouptype_is_mixed",0,21.2,2,0.666666666666667,1,37.0677186061801,0,33.5218058294981,"LOW","LOW_STRAT",3
"660",21,"1","160321_1143",21,7,"STRAT","CondCoop","grouptype_is_mixed",5,20.4,9,3,2,69.5069033530572,1,63.2719701950471,"HIGH","HIGH_STRAT",1
"661",22,"7","160321_1143",22,7,"STRAT","Others","grouptype_is_mixed",2,19.2,2,0.666666666666667,0,31.1242603550296,0,33.5218058294981,"LOW","LOW_STRAT",1
"662",89,"32","160323_1155",17,7,"PREF","Freerider","grouptype_is_mixed",20,36,60,20,20,81.2121212121212,1,56.3299663299663,"HIGH","HIGH_STRAT",3
"663",31,"11","160321_1405",7,7,"STRAT","Freerider","grouptype_is_mixed",0,23.6,6,2,3,59.2617702448211,1,48.9642184557439,"HIGH","HIGH_STRAT",2
