"","sessionid","treatmentnumber","subjects","period","subject","group","profit","totalprofit","contribution_id","income","strategic_ability","timecalculercontrolreppggok","timeokcontrolreppggok","timecalculerrepeatedpggok","timeokrepeatedpggok","sumc_rep","roundprofit","timecontinuerrepeatedpggfeedback","gamepaid","paypgg","paytask","finalprofit","moneyearned","crtscore","paycrt","mycontrib","sumcont_one","sm","paypggone","type","unassigned","winrace","payrace","bilevel","maxint","choiceguess","payguess","target","p","guessability","gr_one","ap","unco_cont","cond1","cond2","cond3","cond4","cond5","cond6","cond7","cond8","cond9","cond10","cond11","cond12","cond13","cond14","cond15","cond16","cond17","cond18","cond19","cond20","cond21","timeokcontrolonepggok","timeokoneshotpgguncook","timeokoneshotpggcondok","avg_cond","cov","sum_square1","sum_square2","avg_bench","d1","d2","var_cond","cor","othercont","mycond","ca","cb","cc","gr_guess","ce","timeokguessinggameok","cg","distance","winguess","cj","sessiontarget","cl","age","gender","study","yearstudy","nation","difficultexp","strategy","strategy1","strategy2","strategypartner","risk","session","id","idgroup","hetero","female","groupcont","avg_cont_all","avg_cont_type","avg_cont_ability","otherCC","CC","n_cc","cumability","bin_strategic_ability","n_H","avg_cont_prefgroup","avg_cont_abgroup","groupcompo","allCC","allH","dif_cont","othercont_rep","mincont","medcont","repothercont","otherH","periodsq","minab","maxab","decile","quartile","avgsm","FR","n_low","n_fr","allFR","allLow","fieldstudy","nationality","avg_cont_compo","condition","sum_contribution_g","avg_contribution_g","avg_contr_g_others","roundprofit_id","grouptype","group_ability_cont","group_ability_cat","group_ability_bin"
"1","160329_1355",0,"subjects",1,5,2,"0","0",10,23.2,37.8944490019141,"51","26","0",19,22,23.2,12,NA,NA,NA,10.64,10.64,0,0,50,250,0,"300","CondCoop",NA,1,200,1,5,30,100,2333333333333330,"0.6666666666666666",0.936833470057424,7,0,50,0,10,20,30,40,50,60,70,80,90,100,110,120,130,140,150,160,170,180,190,200,45,37,55,"100",77000,77000,77000,100,"100",100,"3850",1,270,200,250,50,"300",5,30,84,2333333333333330,6666666666666660,1,100,3213888888888880,"0.9368334700574242",23,"Femme","Economie et Gestion, Math-Eco","Licence 2","Francaise","4","selon le total de jeton dans la cagnotte commune je versez un certain nombre de jetons","",NA,"en versant le peu ou pas de jeton",0,8,173,"58",NA,1,7.33333349227905,9.54166698455811,12.4399995803833,9.15999984741211,1,1,2,0.380208343267441,0,1,10.3541669845581,9.89583301544189,3,0,0,5,12,0,10,12,1,1,13.3333330154419,62.6415100097656,4,2,100,0,2,1,0,0,3,3,9.00925922393799,"RAND",22,7.33333333333333,6,23.2,"grouptype_is_mixed",37.9564305897366,"MEDIUM","LOW_STRAT"
"2","160329_1355",0,"subjects",1,4,2,"0","0",12,21.2,62.6415094339623,"85","8","-3",-9,22,21.2,11,NA,NA,NA,7.84e+15,7.84e+15,3,300,100,200,1,"220","CondCoop",NA,1,200,1,5,43,0,2288888888888880,"0.6666666666666666",0.679245283018868,8,1,120,0,10,20,30,40,50,60,70,80,90,100,110,120,130,140,150,160,170,180,190,100,29,18,-8,"9523809523809520",67000,6652380952380950,77000,100,"4761904761904750",100,"3326190476190470",0.936140176684459,100,100,200,100,"220",2,43,1,2288888888888880,2011111111111110,0,0,3213888888888880,"0.6792452830188679",20,"Homme","Sciences dures (Mathématiques, Chimie, Biologie, Physique, Informatique)","Licence 1","Francaise","5 (Facile)","regarder la mise des autres joueurs et adapter afin que ma mise personnelle soit toujours en dessous de la mise globale\r\n","",NA,"j'ai pensé que les joueurs allaient  résonner comme moi, j'ai donc réduit de plus en plus la contribution",7,8,172,"58",NA,0,7.33333349227905,9.54166698455811,12.4399995803833,9.95652198791504,1,1,2,0.817708313465118,1,1,10.3541669845581,9.89583301544189,3,0,0,0,10,0,10,10,0,1,13.3333330154419,62.6415100097656,9,4,95.2380981445312,0,2,1,0,0,4,3,9.00925922393799,"RAND",22,7.33333333333333,5,21.2,"grouptype_is_mixed",37.9564305897366,"MEDIUM","LOW_STRAT"
"3","160324_1558",0,"subjects",1,15,5,"0","0",10,22,44.4444444444444,"0","47","0",19,20,22,13,NA,NA,NA,15445,15445,1,100,40,260,0,"316","Others",NA,1,200,5,5,75,0,2777777777777770,"0.6666666666666666",0,3,0,40,0,5,10,15,20,20,20,25,25,25,25,30,30,30,40,40,15,15,10,10,10,43,44,-7,"20",3250,2299999999999990,77000,100,"-10",100,"115",0.244215981276842,20,25,260,40,"316",7,75,86,2777777777777770,4722222222222220,0,0,2927777777777770,"0",18,"Femme","Economie et Gestion, Math-Eco","Licence 1","Francaise","5 (Facile)","je comptais mettre en confiance les autres joueurs au début en misant puis ne rien miser, mais les autres joueurs n'ont rien misé dès le départ donc j'ai fais comme eux","",NA,"je pensais qu'ils miseraient un minimum",6,7,159,"53",NA,1,6.66666650772095,9.54166698455811,10,9.95652198791504,0,0,0,0.546875,1,2,7.85416650772095,10.5614032745361,3,0,0,6,10,0,10,10,1,1,12.1129598617554,50.4555397033691,6,3,20,0,1,2,0,0,3,3,9.00925922393799,"RAND",20,6.66666666666667,5,22,"grouptype_is_mixed",35.6709811172746,"LOW","LOW_STRAT"
"4","160321_1405",2,"subjects",1,18,3,"0","0",10,18.4,32.4369114877589,"57","-6","0",19,14,18.4,15,NA,NA,NA,12.34,12.34,2,200,200,500,0,"300","CondCoop",NA,1,200,1,5,13,200,8222222222222220,"0.6666666666666666",0.706440677966102,3,0,200,0,0,0,0,0,0,0,0,40,45,50,50,60,70,80,80,80,80,80,80,100,54,10,-22,"4261904761904760",43750,2738095238095230,77000,100,"5738095238095230",100,"1369047619047610",0.952814636340824,300,100,500,200,"300",3,13,43,8222222222222220,4777777777777770,1,200,2502777777777770,"0.7064406779661019",20,"Femme","Droit, Sciences politiques","Licence 2","Francaise","3","J'ai regardé à quelle hauteur les 2 autres joueurs participaient à la cagnotte. Je mettais à peu près pareil mais voyant qu'ils ne participaient plus j'ai d'abord essayé de relancer le mouvement puis je n'ai plus participé non plus.","",NA,"Je pensais qu'ils allaient commencer par miser environ la moitié de leur dotation dans la cagnotte. Puis inéxorablement chacun aurait voulu participer un peu moins donc on serait retombé à une participation nulle pour chacun.",7,2,42,"11",NA,1,4.66666650772095,10.472222328186,12,9.52777767181396,0,1,1,0.296875,0,2,9.17777824401855,10.5614032745361,3,0,0,-10,3.99999952316284,2,2,3.99999952316284,2,1,32.4369125366211,59.2617683410645,3,2,42.6190490722656,0,1,1,0,0,2,3,9.00925922393799,"STRAT",17,5.66666666666667,3.5,20.2,"grouptype_is_mixed",48.9642184557439,"HIGH","HIGH_STRAT"
"5","160321_1553",2,"subjects",1,22,5,"0","0",20,33.6,44.9263721552878,"88","45","8",4,56,33.6,3,NA,NA,NA,8.28e+15,8.28e+15,1,100,200,360,1,"216","CondCoop",NA,1,200,1,5,25,0,3044444444444440,"0.6666666666666666",0.814457831325301,8,1,200,0,10,0,40,50,60,70,80,90,100,110,120,130,140,150,160,170,180,190,200,200,-173,36,10,"1071428571428570",80300,8462857142857140,77000,100,"9285714285714280",100,"4231428571428570",0.99474480048698,160,200,360,200,"216",5,25,5,3044444444444440,5444444444444440,0,0,3141666666666660,"0.8144578313253013",20,"Homme","Economie et Gestion, Math-Eco","Licence 2","Francaise","3","joue 20 jeton a chaque fois et au 13 periode commencer a jouer moin ainsi on a un gain optimal","",NA,"meme manieire que moi jouer 20 au debut pour que tous le monde gagne",6,3,70,"21",NA,0,18.6666660308838,10.472222328186,12,11.4166669845581,0,1,1,0.5625,1,2,9.17777824401855,10.5614032745361,3,0,0,0,36,16,20,36,1,1,39.8661308288574,44.9263725280762,6,3,107.142860412598,0,1,1,0,0,3,3,9.00925922393799,"STRAT",58,19.3333333333333,19,34.8,"grouptype_is_mixed",43.0789825970549,"MEDIUM","HIGH_STRAT"
"6","160321_1405",2,"subjects",1,17,5,"0","0",5,25.8,42.2222222222222,"9","-3","3",-5,18,25.8,7,NA,NA,NA,14245,14245,2,200,50,105,0,"213","Freerider",NA,1,200,3,5,100,0,2733333333333330,"0.6666666666666666",0,1,0,50,0,0,0,0,0,0,0,0,0,0,0,0,0,0,0,0,0,0,0,0,0,-34,-10,-25,"0",0,0,77000,100,"0",100,"0",0,120,0,105,50,"213",7,100,-23,2733333333333330,7266666666666660,0,0,2502777777777770,"0",21,"Homme","Sciences dures (Mathématiques, Chimie, Biologie, Physique, Informatique)","Master 1","Francaise","5 (Facile)","au début je pensait mettre de fort montant car il permettait a tout le monde de faire des gain importants , mais je me suis rendu compte que je participé a plus de la moitier du pot commun, donc j'ai arreté","",NA,"en faisant de plus forte mise",7,2,41,"13",NA,0,6,10.472222328186,6.86666679382324,9.52777767181396,1,0,1,0.479166656732559,0,0,9.17777824401855,8.06666660308838,3,0,0,0,13,5,5,13,0,1,40.1807899475098,42.2222213745117,5,2,0,1,3,1,0,1,4,3,9.00925922393799,"STRAT",18,6,6.5,25.8,"grouptype_is_mixed",40.8612680477087,"MEDIUM","LOW_STRAT"
"7","160321_1143",2,"subjects",1,21,1,"0","0",20,17.4,69.5069033530572,"0","86","13",5,29,17.4,13,NA,NA,NA,15.58,15.58,3,300,90,270,0,"272","CondCoop",NA,1,200,3,5,2,200,1088888888888880,"0.6666666666666666",0.485207100591716,1,0,90,0,50,50,50,50,50,60,60,80,80,100,100,120,120,140,140,160,160,180,180,200,-116,-7,12,"1014285714285710",66900,6045714285714280,77000,100,"9857142857142850",100,"3022857142857140",0.980521104321541,80,200,270,90,"272",8,2,7,1088888888888880,8888888888888880,1,200,23.75,"0.485207100591716",21,"Homme","Sociologie","Master 1","Francaise","4","Au début généreux dans le pot commun dans le but d'instaurer une dynamique positive de gains mutuels, voyant le succès relatif de cette stratégie (moins de 20 de gains), j'ai baissé de moitié pour les 4 tours suivants. N'ayant","toujours pas satisfaction de la coopération, j'ai brutalement choisi 0, ce qui a cassé la confiance, et a entraine le groupe vers des apports très bas pour tout le reste du processus.",NA,"Je pensais qu'ils seraient plus généreux au début, pour l'intérêt de tous.",8,1,21,"1",NA,0,9.66666698455811,10.472222328186,12,11.4166669845581,1,1,2,0.848958313465118,1,2,10.3541669845581,10.5614032745361,3,0,0,11,9.00000095367432,4,5,9.00000095367432,1,1,38.2577247619629,82.0512847900391,9,4,101.428573608398,0,1,1,0,0,5,3,9.00925922393799,"STRAT",29,9.66666666666667,4.5,17.4,"grouptype_is_mixed",63.2719701950471,"HIGH","HIGH_STRAT"
"8","160321_1553",2,"subjects",1,8,5,"0","0",20,33.6,39.8661311914324,"0","-23","0",-80,56,33.6,18,NA,NA,NA,10605,10605,1,100,60,360,0,"356","Others",NA,1,200,2,5,50,0,3866666666666660,"0.6666666666666666",0.462650602409639,8,0,60,20,20,50,20,40,10,40,40,50,70,45,13,25,125,100,50,41,50,30,40,10,-175,29,-20,"4233333333333330",7240,1609066666666660,77000,100,"-3233333333333330",100,"8045333333333330",0.205686687715969,300,10,360,60,"356",1,50,85,3866666666666660,1133333333333330,0,0,3141666666666660,"0.4626506024096385",20,"Femme","Economie et Gestion, Math-Eco","Licence 1","Autre Non-Européenne","3","J ai choisit dans un mod decroissant","",NA,"par hasard",5,3,56,"21",NA,1,18.6666660308838,10.472222328186,9.5,9.52777767181396,1,0,1,0.432291656732559,0,2,9.17777824401855,10.5614032745361,3,0,0,14,36,16,20,36,2,1,39.8661308288574,44.9263725280762,5,2,42.3333320617676,0,1,1,0,0,3,2,9.00925922393799,"STRAT",58,19.3333333333333,19,34.8,"grouptype_is_mixed",43.0789825970549,"MEDIUM","HIGH_STRAT"
"9","160323_1557",1,"subjects",1,5,3,"0","0",1,22.6,20,"2","-19","12",11,6,22.6,8,NA,NA,NA,12.34,12.34,0,0,10,60,0,"226","Freerider",0,1,200,3,5,99,0,3311111111111110,"0.6666666666666666",0,6,0,10,0,1,2,3,4,5,6,7,8,9,10,11,12,13,14,15,16,17,18,19,20,36,22,5,"10",7700,770,77000,100,"10",100,"38.5",1,60,20,60,10,"226",1,99,3,3311111111111110,6588888888888880,0,0,2836111111111110,"0",18,"Femme","Economie et Gestion, Math-Eco","Licence 1","Francaise","4","J'aurai aimé que tout le monde ajoutent 20 euros dans la cagnotte, pour avoir un maximum de gain.","",NA,"Je pensais qu'ils allaient aussi mettre dans la cagnotte 20 euros après que avoir mis personellement 20 euros, or seule une personne l'a fait et l'autre a continué à mettre 0 euros dans la cagnotte.",7,6,125,"43",0,1,2,9.20833301544189,4.83333349227905,8.08571434020996,0,0,0,0.11458333581686,0,0,7.85416650772095,8.06666660308838,3,0,0,0,5,0,1,5,0,1,13.3333330154419,35.8917579650879,2,1,10,1,3,3,1,1,3,3,9.00925922393799,"PREF",6,2,2.5,22.6,"Freerider",23.0750307503075,"LOW","LOW_STRAT"
"10","160321_1143",2,"subjects",1,12,6,"0","0",0,27.8,38.1459566074951,"82","-11","23",20,13,27.8,17,NA,NA,NA,9.3e+15,9.3e+15,0,0,60,360,1,"356","Freerider",NA,1,200,3,5,43,0,2355555555555550,"0.6666666666666666",0.544378698224852,6,1,0,0,0,0,0,0,0,60,0,0,0,0,0,0,60,0,0,0,0,0,0,60,16,26,53,"8571428571428570",5.4e+15,9257142857142850,77000,100,"5142857142857140",100,"4628571428571420",0.202259958738973,300,60,360,60,"356",6,43,37,2355555555555550,1944444444444440,0,0,23.75,"0.5443786982248521",22,"Femme","Autres","Master 1","Autre Non-Européenne","4","choisir toujour 0","",NA,"faire la contribution",6,1,12,"6",NA,1,4.33333349227905,10.472222328186,6.86666679382324,9.52777767181396,2,0,2,0.385416656732559,0,0,10.3541669845581,8.06666660308838,3,0,0,0,13,3,3,13,0,1,38.1459579467773,39.0401039123535,4,2,8.5714282989502,1,3,2,0,1,1,2,9.00925922393799,"STRAT",13,4.33333333333333,6.5,27.8,"grouptype_is_mixed",38.7332895025203,"MEDIUM","LOW_STRAT"
"11","160321_1143",2,"subjects",1,2,5,"0","0",20,30,41.5121630506246,"96","-8","0",26,50,30,9,NA,NA,NA,15.94,15.94,2,200,200,470,0,"282","UncondCoop",NA,1,200,1,5,50,0,2555555555555550,"0.6666666666666666",0.378698224852071,5,0,200,200,200,200,200,200,200,200,200,200,200,200,200,200,200,200,200,200,200,200,200,200,-63,23,57,"200",0,0,77000,100,"0",100,"0",0,120,200,470,200,"282",4,50,86,2555555555555550,2444444444444440,0,0,23.75,"0.3786982248520711",19,"Homme","Economie et Gestion, Math-Eco","Licence 1","Autre Non-Européenne","5 (Facile)","20 par sécurité","",NA,"20...",7,1,2,"5",NA,0,16.6666660308838,10.472222328186,12.3333330154419,9.52777767181396,2,0,2,0.463541656732559,0,1,10.3541669845581,9.89583301544189,3,0,0,0,29.9999980926514,10,20,29.9999980926514,1,1,40.7889556884766,44.996711730957,5,2,200,0,2,0,0,0,3,2,9.00925922393799,"STRAT",50,16.6666666666667,15,30,"grouptype_is_mixed",42.4326101249178,"MEDIUM","HIGH_STRAT"
"12","160321_1143",2,"subjects",1,11,5,"0","0",10,40,44.9967126890204,"6","-70","10",2,50,40,13,NA,NA,NA,15.94,15.94,1,100,200,470,1,"282","CondCoop",NA,1,200,1,5,16,200,1711111111111110,"0.6666666666666666",0.816568047337278,5,1,50,0,0,0,0,0,100,100,100,100,100,100,100,100,100,150,150,150,150,150,150,200,2,21,-31,"9523809523809520",69500,7452380952380950,77000,100,"1047619047619040",100,"3726190476190470",0.917470097393264,270,200,470,200,"282",7,16,-28,1711111111111110,1111111111111110,1,200,23.75,"0.8165680473372781",21,"Homme","Economie et Gestion, Math-Eco","Master 1","Autre Non-Européenne","4","puisqu'il y'a de l'information après chaque périodes, en premier tester la stratégies des autres participants en mettant 10 jetons, puis mettre 20 jetons vu que tout le monde l'ont fait, et vers les 3 dernières miser 0 jetons","parcequ'il y'a 22 personnes donc 8 groupes et une probabilités faibles de revenir dans le même groupe.",NA,"aucune idée fallait effectuer la première periode",8,1,11,"5",NA,0,16.6666660308838,10.472222328186,12,11.4166669845581,1,1,2,0.567708313465118,1,1,10.3541669845581,9.89583301544189,3,0,0,5,40,20,20,40,0,1,40.7889556884766,44.996711730957,6,3,95.2380981445312,0,2,0,0,0,3,2,9.00925922393799,"STRAT",50,16.6666666666667,20,40,"grouptype_is_mixed",42.4326101249178,"MEDIUM","HIGH_STRAT"
"13","160329_1355",0,"subjects",1,6,2,"0","0",0,33.2,13.3333333333333,"40","8","0",20,22,33.2,16,NA,NA,NA,9.04e+15,9.04e+15,0,0,10,310,1,"376","Freerider",NA,1,200,2,5,100,0,40,"0.6666666666666666",0,2,1,100,0,0,0,10,0,0,0,30,30,30,30,30,30,30,10,41,10,10,10,10,10,-2,11,-9,"1528571428571420",5.75e+15,3774285714285710,77000,100,"-5285714285714280",100,"1887142857142850",0.337291265991837,300,10,310,10,"376",7,100,80,40,60,0,0,3213888888888880,"0",19,"Femme","Autres","Licence 1","Francaise","4","AVOIR MINIMUM 20JETONS","",NA,"EN MISANT 0",4,8,174,"58",NA,1,7.33333349227905,9.54166698455811,3.91666674613953,9.15999984741211,2,0,2,0.0989583358168602,0,1,10.3541669845581,9.89583301544189,3,0,0,-10,22,10,10,22,1,1,13.3333330154419,62.6415100097656,1,1,15.2857141494751,1,2,1,0,0,1,3,9.00925922393799,"RAND",22,7.33333333333333,11,33.2,"grouptype_is_mixed",37.9564305897366,"MEDIUM","LOW_STRAT"
"14","160321_1143",2,"subjects",1,23,6,"0","0",3,24.8,39.0138067061144,"31","-42","0",13,13,24.8,8,NA,NA,NA,7824999999999990,7824999999999990,0,0,100,200,0,"220","CondCoop",NA,1,200,1,5,25,0,1088888888888880,"0.6666666666666666",0.970414201183432,4,0,100,0,9,9,19,19,25,30,35,40,45,55,60,65,75,85,90,95,98,99,99,99,9,29,-11,"5480952380952380",42590,2400523809523800,77000,100,"4419047619047610",100,"1200261904761900",0.990624965004824,55,99,200,100,"220",8,25,77,1088888888888880,1411111111111110,0,0,23.75,"0.9704142011834319",20,"Femme","Sciences dures (Mathématiques, Chimie, Biologie, Physique, Informatique)","Licence 1","Francaise","5 (Facile)","pas de risque","",NA,"plus de contribution",2,1,23,"6",NA,1,4.33333349227905,10.472222328186,12,9.52777767181396,1,1,2,0.40625,0,0,10.3541669845581,8.06666660308838,3,0,0,-7,10,0,3,10,0,1,38.1459579467773,39.0401039123535,5,2,54.8095245361328,0,3,2,0,1,4,3,9.00925922393799,"STRAT",13,4.33333333333333,5,24.8,"grouptype_is_mixed",38.7332895025203,"MEDIUM","LOW_STRAT"
"15","160323_1352",1,"subjects",1,20,8,"0","0",1,29.8,36.8960863697706,"80","-15","0",22,18,29.8,10,NA,NA,NA,14.04,14.04,0,0,200,390,1,"234","CondCoop",1,1,200,1,5,21,200,1688888888888880,"0.6666666666666666",0.906882591093117,3,1,110,0,30,50,70,60,80,100,110,120,130,140,150,150,160,180,180,200,200,200,200,200,-45,-1,-6,"129047619047619",75300,7698095238095230,77000,100,"7095238095238090",100,"3849047619047610",0.978043055479035,190,200,390,200,"234",1,21,86,1688888888888880,4111111111111110,1,200,2483333333333330,"0.9068825910931174",18,"Homme","Economie et Gestion, Math-Eco","Licence 1","Francaise","5 (Facile)","mETTRE LE PLUS SOUVENT POSSIBLE \""0\"" car on ne peut pas gagner moins de 20 jetons tandis que si on mise davantage on risque de perdre des jetons. Il faut espérer que les autres misent.","",NA,"Je pensais qu'ils allaient miser beaucoup.",5,5,116,"40",1,0,6,9.20833301544189,1.5,8.08571434020996,1,1,2,0.354166656732559,0,2,10.3541669845581,10.5614032745361,3,0,0,-10,17,2,2,17,2,1,36.8960876464844,58.2276191711426,4,2,129.047622680664,0,1,1,0,0,3,3,9.00925922393799,"PREF",18,6,8.5,29.8,"grouptype_is_mixed",46.3967611336032,"MEDIUM","HIGH_STRAT"
"16","160323_1557",1,"subjects",1,18,2,"0","0",5,33,21.0824108241082,"42","15","14",12,30,33,17,NA,NA,NA,16215,16215,0,0,30,250,1,"320","Freerider",0,1,200,1,5,7,0,2066666666666660,"0.6666666666666666",0.432472324723247,2,1,10,0,0,0,0,0,0,0,5,5,5,7,7,7,8,10,10,15,20,15,20,30,-157,-47,8,"7809523809523800",9349999999999990,1355238095238090,77000,100,"2219047619047610",100,"6776190476190470",0.915289431545917,220,30,250,30,"320",6,7,75,2066666666666660,1366666666666660,0,0,2836111111111110,"0.4324723247232474",22,"Homme","Economie et Gestion, Math-Eco","Licence 3","Autre Non-Européenne","3","je me retenais dans la contribution a la cagnontte dans les 3 premieres etapes et par la suite comme les 2 autres mettaient 20 j'ai aussi mis 20 pour gagner plus  que les 20 jetons de bas","",NA,"ils avaient compris la bonne strategie en mettant 2 chacun mais a la fin du jeu il n'ont rien mis, ils ont voulu garder les 20",7,6,138,"42",0,0,10,9.20833301544189,4.83333349227905,8.08571434020996,0,0,0,0.13541667163372,0,2,7.85416650772095,10.5614032745361,3,0,0,4,25,5,5,25,2,1,21.0824108123779,77.0561676025391,2,1,7.8095235824585,1,1,3,1,0,3,2,9.00925922393799,"PREF",30,10,12.5,33,"Freerider",53.9702063687304,"HIGH","HIGH_STRAT"
"17","160324_1558",0,"subjects",1,13,5,"0","0",0,32,50.4555387460077,"62","59","19",17,20,32,15,NA,NA,NA,16595,16595,1,100,0,240,1,"344","Freerider",NA,1,200,1,5,30,0,2711111111111110,"0.6666666666666666",0.980332829046899,5,1,0,0,0,0,0,0,0,0,0,0,0,0,0,0,0,0,0,0,0,0,0,0,23,2,0,"0",0,0,77000,100,"0",100,"0",0,240,0,240,0,"344",8,30,28,2711111111111110,2888888888888890,0,0,2927777777777770,"0.9803328290468986",20,"Homme","Economie et Gestion, Math-Eco","Licence 2","Francaise","5 (Facile)","J'ai toujours misé 0 car 0 été l'optimal pour mes gains.","",NA,"Au début je savais que les autres aller contribuer une certaine somme dans la cagnotte commune, comme j'ai toujours misé 0 j'ai donc optimiseé au maximum mes gains et profiter des investissement des autres personnes au début.",8,7,157,"53",NA,0,6.66666650772095,9.54166698455811,3.91666674613953,9.95652198791504,0,0,0,0.640625,1,2,7.85416650772095,10.5614032745361,3,0,0,0,20,10,10,20,1,1,12.1129598617554,50.4555397033691,7,3,0,1,1,2,0,0,3,3,9.00925922393799,"RAND",20,6.66666666666667,10,32,"grouptype_is_mixed",35.6709811172746,"LOW","LOW_STRAT"
"18","160321_1405",2,"subjects",1,14,5,"0","0",8,22.8,40.180790960452,"84","37","0",4,18,22.8,5,NA,NA,NA,9.095e+15,9.095e+15,0,0,25,105,1,"238","Others",NA,1,200,2,5,33,200,2977777777777770,"0.6666666666666666",0.805423728813559,1,1,90,10,40,40,50,27,25,25,60,70,80,45,50,60,70,20,60,50,50,50,25,25,-10,-1,-56,"4438095238095230",3.68e+15,7090952380952380,77000,100,"-1938095238095230",100,"354547619047619",0.157488980509156,80,25,105,25,"238",2,33,24,2977777777777770,3222222222222220,1,200,2502777777777770,"0.8054237288135593",20,"Femme","Autres","Licence 2","Francaise","4","calcul par rapport à la contribution moyenne, plus elle était haute, plus je contribuais etc.","",NA,"Je pensais que les autres joueurs allaient miser plus.",6,2,38,"13",NA,1,6,10.472222328186,9.5,9.52777767181396,1,0,1,0.453125,0,0,9.17777824401855,8.06666660308838,3,0,0,-1,10,5,5,10,0,1,40.1807899475098,42.2222213745117,5,2,44.3809509277344,0,3,1,0,1,1,3,9.00925922393799,"STRAT",18,6,5,22.8,"grouptype_is_mixed",40.8612680477087,"MEDIUM","LOW_STRAT"
"19","160321_1405",2,"subjects",1,20,5,"0","0",5,25.8,40.180790960452,"74","46","22",2,18,25.8,16,NA,NA,NA,8719999999999990,8719999999999990,0,0,50,120,1,"222","CondCoop",NA,1,200,2,5,33,200,2311111111111110,"0.6666666666666666",0.805423728813559,2,1,50,0,0,0,5,5,5,10,10,0,10,10,10,10,50,50,50,50,50,50,50,50,23,4,-2,"2261904761904760",24600,9930952380952370,77000,100,"2738095238095230",100,"4965476190476180",0.889599017915528,70,50,120,50,"222",8,33,4,2311111111111110,9888888888888890,1,200,2502777777777770,"0.8054237288135593",20,"Homme","Economie et Gestion, Math-Eco","Licence 2","Francaise","4","Investir une somme moyenne par rapport a la somme investi par les deux autres membres","",NA,"En essayant d'investir le moins possible",7,2,44,"13",NA,0,6,10.472222328186,12,9.52777767181396,0,1,1,0.453125,0,0,9.17777824401855,8.06666660308838,3,0,0,0,13,5,5,13,0,1,40.1807899475098,42.2222213745117,5,2,22.619047164917,0,3,1,0,1,3,3,9.00925922393799,"STRAT",18,6,6.5,25.8,"grouptype_is_mixed",40.8612680477087,"MEDIUM","LOW_STRAT"
"20","160323_1557",1,"subjects",1,22,8,"0","0",11,39.6,47.4538745387454,"37","35","-1",-8,51,39.6,-9,NA,NA,NA,16.28,16.28,0,0,120,250,0,"230","Others",0,1,200,3,5,35,100,2377777777777770,"0.6666666666666666",0.823616236162362,2,0,120,0,20,50,0,70,100,100,50,30,100,50,20,100,20,100,100,100,90,90,0,0,-322,3,-98,"5666666666666660",9.2e+15,3326666666666660,77000,100,"-5666666666666660",100,"1663333333333330",0.18177653532349,110,0,250,120,"230",8,35,10,2377777777777770,1122222222222220,1,100,2836111111111110,"0.8236162361623616",18,"Femme","Economie et Gestion, Math-Eco","Licence 1","Francaise","3","Je regardais combien les autres mettais en moyenne et comme il mettais générallement le même montant, je contibuais en fonction pour que cela me rapporte la maximum de gain.","",NA,"Ils jouaient générallement de la même façon.",2,6,142,"48",0,1,17,9.20833301544189,11.6666669845581,10.2702703475952,0,0,0,0.598958313465118,1,1,7.85416650772095,9.89583301544189,3,0,0,-1,40,20,20,40,0,1,35.5555572509766,47.4538726806641,6,3,56.6666679382324,0,2,0,0,0,3,3,9.00925922393799,"PREF",51,17,20,39.6,"Others",41.003143364767,"MEDIUM","LOW_STRAT"
"21","160321_1143",2,"subjects",1,8,8,"0","0",20,23.4,29.1518737672584,"59","43","4",2,39,23.4,-2,NA,NA,NA,10.16,10.16,0,0,200,320,1,"192","CondCoop",NA,1,200,1,5,10,200,2311111111111110,"0.6666666666666666",0.674556213017751,8,1,100,0,10,20,30,40,50,60,70,80,90,100,110,120,130,140,150,160,170,180,190,200,1,39,33,"100",77000,77000,77000,100,"100",100,"3850",1,120,200,320,200,"192",2,10,43,2311111111111110,1311111111111110,1,200,23.75,"0.6745562130177515",23,"Femme","Droit, Sciences politiques","Master 1","Francaise","1 (Difficile)","cooperer","",NA,"cooperation",5,1,8,"8",NA,1,13,10.472222328186,12,9.52777767181396,0,1,1,0.22395832836628,0,0,9.17777824401855,8.06666660308838,3,0,0,10,19,4,15,19,0,1,20.0788955688477,29.1518745422363,3,1,100,0,3,1,0,1,2,3,9.00925922393799,"STRAT",39,13,9.5,23.4,"grouptype_is_mixed",25.2991452991453,"LOW","LOW_STRAT"
"22","160323_1155",1,"subjects",1,15,8,"0","0",10,40,44.4444444444444,"74","37","0",7,50,40,8,NA,NA,NA,15325,15325,1,100,100,300,0,"280","Freerider",1,1,200,5,5,100,0,3688888888888880,"0.6666666666666666",0,1,0,100,0,0,0,0,0,0,0,0,0,0,0,0,0,0,0,0,0,0,0,0,0,-220,36,68,"0",0,0,77000,100,"0",100,"0",0,40,0,300,100,"280",6,100,48,3688888888888880,6311111111111110,0,0,2933333333333330,"0",19,"Homme","Droit, Sciences politiques","Licence 2","Francaise","4","Jouer la conciliation et, si cela ne marche pas, faire du \""tit-for-tat\""","",NA,"En conciliation, sauf la ou les deux dernières périodes",3,4,87,"32",1,0,16.6666660308838,9.20833301544189,15,10.2702703475952,0,0,0,0.546875,1,2,7.85416650772095,10.5614032745361,3,0,0,0,40,20,20,40,1,1,43.3333320617676,81.2121200561523,6,3,0,1,1,2,0,0,2,3,9.00925922393799,"PREF",50,16.6666666666667,20,40,"grouptype_is_mixed",56.3299663299663,"HIGH","HIGH_STRAT"
"23","160321_1553",2,"subjects",1,9,6,"0","0",10,22,25.4082998661312,"0","58","0",6,20,22,11,NA,NA,NA,8959999999999990,8959999999999990,1,100,60,240,0,"284","CondCoop",NA,1,200,2,5,65,0,2444444444444440,"0.6666666666666666",0.0289156626506024,1,0,60,0,0,0,0,0,0,0,30,30,30,50,50,50,50,50,50,30,50,50,30,30,-46,-31,-70,"2761904761904760",20700,9380952380952370,77000,100,"238095238095238",100,"4690476190476180",0.770196458196097,380,30,240,60,"284",2,65,4,2444444444444440,4055555555555550,0,0,3141666666666660,"0.02891566265060241",22,"Homme","Economie et Gestion, Math-Eco","Master 1","Francaise","4","Tenter d'instaurer une cagnotte haute dès le début, en jouant entre 10 et 15.","",NA,"J'espérais qu'il ferait la même chose, mais un joueur n'a rien mis dans le pot pendant longtemps...",4,3,57,"22",NA,0,6.66666650772095,10.472222328186,12,9.52777767181396,0,1,1,0.19270832836628,0,0,9.17777824401855,8.06666660308838,3,0,0,4,10,0,10,10,0,1,25.4083003997803,39.8661308288574,2,1,27.619047164917,0,3,1,0,1,3,3,9.00925922393799,"STRAT",20,6.66666666666667,5,22,"grouptype_is_mixed",30.2275769745649,"LOW","LOW_STRAT"
"24","160321_1405",2,"subjects",1,7,3,"0","0",5,26.4,59.2617702448211,"0","68","0",20,14,26.4,14,NA,NA,NA,13115,13115,2,200,20,120,0,"252","Freerider",NA,1,200,3,5,5,200,2333333333333330,"0.6666666666666666",0.511186440677966,2,0,20,0,0,10,10,10,10,20,20,20,20,0,0,0,0,0,0,0,0,0,0,0,65,26,38,"5714285714285710",-4600,1314285714285710,77000,100,"-5714285714285710",100,"6571428571428570",-0.457264594180338,100,0,120,20,"252",5,5,84,2333333333333330,1833333333333330,1,200,2502777777777770,"0.5111864406779663",19,"Homme","Droit, Sciences politiques","Licence 2","Francaise","4","ne rien donner","",NA,"commencer par donner un peu et assez vite comprendre qu'il valait mieux ne rien donner",5,2,31,"11",NA,0,4.66666650772095,10.472222328186,6.86666679382324,11.4166669845581,1,0,1,0.770833313465118,1,2,9.17777824401855,10.5614032745361,3,0,0,0,12,2,2,12,1,1,32.4369125366211,59.2617683410645,8,4,5.7142858505249,1,1,1,0,0,2,3,9.00925922393799,"STRAT",17,5.66666666666667,6,25.2,"grouptype_is_mixed",48.9642184557439,"HIGH","HIGH_STRAT"
"25","160324_1558",0,"subjects",1,5,2,"0","0",0,44,38.2450832072617,"0","28","-9",-12,40,44,15,NA,NA,NA,18145,18145,0,0,100,320,0,"292","Freerider",NA,1,200,2,5,20,0,2777777777777770,"0.6666666666666666",0.747352496217852,4,0,100,0,0,0,0,0,0,0,0,0,0,0,0,0,0,0,0,0,100,100,100,100,-27,-16,2,"1904761904761900",34000,3238095238095230,77000,100,"8095238095238090",100,"1619047619047610",0.680908484039055,120,100,320,100,"292",7,20,66,2777777777777770,7777777777777770,0,0,2927777777777770,"0.7473524962178519",21,"Homme","Economie et Gestion, Math-Eco","Licence 3","Francaise","5 (Facile)","Je ne donne rien, car je suppose qu'aucun des autres membres ne donnera. et Si c'est le cas c'est tant mieux pour moi.","",NA,"Exactement comme sa s'est déroulé, au début ils donnent, puis arriver à la fin ils ont en surement assez de se faire avoir et ils ne donnent donc plus rien.",8,7,149,"50",NA,0,13.3333330154419,9.54166698455811,3.91666674613953,9.15999984741211,2,0,2,0.390625,0,1,10.3541669845581,9.89583301544189,3,0,0,-10,40,20,20,40,1,1,38.2450828552246,54.5234489440918,4,2,19.0476188659668,1,2,1,0,0,3,3,9.00925922393799,"RAND",40,13.3333333333333,20,44,"grouptype_is_mixed",44.0376533871239,"MEDIUM","HIGH_STRAT"
"26","160324_1558",0,"subjects",1,8,3,"0","0",0,38,44.5990922844176,"66","18","-53",-69,30,38,15,NA,NA,NA,17685,17685,0,0,120,370,0,"302","CondCoop",NA,1,200,2,5,27,200,2377777777777770,"0.6666666666666666",0.937972768532527,2,0,120,0,0,0,0,0,0,0,70,80,90,100,80,80,80,80,80,80,80,80,80,100,-26,0,-153,"5523809523809520",4139999999999990,3292380952380950,77000,100,"4476190476190470",100,"1646190476190470",0.822242533128492,250,100,370,120,"302",3,27,87,2377777777777770,3222222222222220,1,200,2927777777777770,"0.9379727685325265",24,"Femme","Sciences dures (Mathématiques, Chimie, Biologie, Physique, Informatique)","Licence 2","Autre Non-Européenne","4","mettre a contribution entre 0 et 10 jetons. pas plus","",NA,"pareil entre 0 et 10 jetons",7,7,152,"51",NA,1,10,9.54166698455811,12.4399995803833,9.95652198791504,1,1,2,0.552083313465118,1,2,10.3541669845581,10.5614032745361,3,0,0,-12,30,10,10,30,1,1,6.66666650772095,53.7098655700684,6,3,55.238094329834,0,1,0,0,0,4,2,9.00925922393799,"RAND",30,10,15,38,"grouptype_is_mixed",34.9918753852188,"LOW","LOW_STRAT"
"27","160329_1355",0,"subjects",1,9,3,"0","0",0,35,12.5731473885699,"-45","-193","13",8,25,35,17,NA,NA,NA,16.17,16.17,0,0,50,200,0,"270","Freerider",NA,1,200,1,5,60,200,4933333333333330,"0.6666666666666666",0.177194421657096,8,0,50,0,0,0,0,0,0,0,0,0,0,0,0,0,0,0,0,0,0,0,0,0,-27,14,-1,"0",0,0,77000,100,"0",100,"0",0,170,0,200,50,"270",6,60,84,4933333333333330,1066666666666660,1,200,3213888888888880,"0.177194421657096",20,"Femme","Autres","Licence 2","Francaise","2","Dans la tâche 5, j'ai essayé de tester avec plusieurs nombres dans le calculateur. J'ai remarqué que si je mettais 0 et que les autres participants misaient un nombre élevé en tout, nous gagnions beaucoup plus de jetons.","En revanche, quand je misais haut, nous gagnions moins de jetons.",NA,"Je pensais que les autres allaient misaient haut",10,8,177,"59",NA,1,8.33333301544189,9.54166698455811,3.91666674613953,9.15999984741211,0,0,0,0.078125,0,0,7.85416650772095,8.06666660308838,3,0,0,-5,25,5,5,25,0,1,12.5731477737427,21.7154312133789,1,1,0,1,3,1,0,1,1,3,9.00925922393799,"RAND",25,8.33333333333333,12.5,35,"grouptype_is_mixed",18.6680035244432,"LOW","LOW_STRAT"
"28","160324_1558",0,"subjects",1,18,6,"0","0",10,22,72.1129601613717,"90","40","19",16,20,22,12,NA,NA,NA,18335,18335,3,300,10,270,0,"352","Others",NA,1,200,5,5,60,0,4333333333333330,"0.6666666666666666",0.16338880484115,8,0,10,0,10,20,30,40,50,60,70,80,90,90,50,50,50,50,50,50,50,50,50,50,-240,37,-12,"4952380952380950",11000,1009523809523810,77000,100,"0.4761904761904745",100,"5047619047619050",0.394538182383519,260,50,270,10,"352",4,60,46,4333333333333330,1666666666666660,0,0,2927777777777770,"0.1633888048411498",21,"Femme","Economie et Gestion, Math-Eco","Licence 3","Francaise","4","je voulais mettre un nombre de jetons légèrement inférieur à celui des autres participants en fonction du résultat à la période précédente","",NA,"je pensais qu'ils allaient aussi se baser sur les gains des périodes précédentes mais ils ont souvent mis 0 jetons",4,7,162,"54",NA,1,6.66666650772095,9.54166698455811,10,9.95652198791504,1,0,1,0.869791686534882,1,1,9.17777824401855,9.89583301544189,3,0,0,9,10,0,10,10,0,1,21.1901168823242,72.1129608154297,9,4,49.523811340332,0,2,1,0,0,3,3,9.00925922393799,"RAND",20,6.66666666666667,5,22,"grouptype_is_mixed",41.6271642292822,"MEDIUM","LOW_STRAT"
"29","160321_1405",2,"subjects",1,13,4,"0","0",12,25,44.1280602636535,"0","83","0",23,25,25,-9,NA,NA,NA,10775,10775,1,100,0,125,1,"275","Freerider",NA,1,200,3,5,50,0,2333333333333330,"0.6666666666666666",0.390508474576271,8,1,0,0,0,0,0,0,0,0,0,0,0,0,0,0,0,0,0,0,0,0,0,0,-269,20,16,"0",0,0,77000,100,"0",100,"0",0,125,0,125,0,"275",5,50,76,2333333333333330,2666666666666660,0,0,2502777777777770,"0.3905084745762713",20,"Homme","Autres","Licence 2","Francaise","3","Tester les gens au début mais si ils ne partagent pas je n'investit rien","",NA,"Ceux qui ne conaissent pas le jeu participent à la cagnote commune au début, ceux qui le conaissent bien ne donnent rien dès le départ et récupèrent les bénéfices communs",7,2,37,"12",NA,0,8.33333301544189,10.472222328186,6.86666679382324,11.4166669845581,1,0,1,0.526041686534882,1,2,9.17777824401855,10.5614032745361,3,0,0,10,14.9999990463257,0,10,14.9999990463257,1,1,24.128059387207,47.0659141540527,6,3,0,1,1,2,0,0,1,3,9.00925922393799,"STRAT",27,9,7.5,24.2,"grouptype_is_mixed",38.4406779661017,"MEDIUM","LOW_STRAT"
"30","160324_1558",0,"subjects",1,1,1,"0","0",0,32,59.468818288788,"66","49","9",4,20,32,-7,0,0.5,0,17515,17515,2,200,40,240,0,"304","Freerider",1,1,200,3,5,47,0,2711111111111110,"0.6666666666666666",0.517397881996974,5,0,40,0,0,10,10,10,10,10,20,20,20,20,20,20,20,20,20,20,20,20,20,20,-38,-28,2,"1571428571428570",6799999999999990,9142857142857140,77000,100,"4285714285714280",100,"4571428571428570",0.810443200858753,200,20,240,40,"304",2,47,80,2711111111111110,1988888888888880,0,0,2927777777777770,"0.5173978819969742",20,"Homme","Economie et Gestion, Math-Eco","Licence 1","Francaise","4","cotiser le moins possible pour la caisse commune","",NA,"je pensais qu'ils mettraient de moins en moins au fil des périodes, ce qui a été le cas",7,7,145,"49",1,0,6.66666650772095,9.54166698455811,0,9.95652198791504,1,0,1,0.776041686534882,1,2,9.17777824401855,10.5614032745361,3,0,0,-4,20,0,0,20,1,1,12.1129598617554,59.4688186645508,8,4,15.7142858505249,1,1,1,0,0,3,3,9.00925922393799,"RAND",20,6.66666666666667,10,32,"grouptype_is_mixed",40.3440354121141,"MEDIUM","LOW_STRAT"
"31","160321_1405",2,"subjects",1,21,7,"0","0",20,13.2,31.1111111111111,"0","67","14",9,22,13.2,0,NA,NA,NA,10.24,10.24,1,100,150,235,0,"191","CondCoop",NA,1,200,3,5,100,0,3822222222222220,"0.6666666666666666",0,7,0,150,0,10,20,30,40,50,60,70,80,90,100,110,120,130,140,150,150,150,150,150,150,-16,-17,4,"9285714285714280",64000,5542857142857140,77000,100,"5714285714285710",100,"2771428571428570",0.979642839876203,85,150,235,150,"191",6,100,71,3822222222222220,6177777777777770,0,0,2502777777777770,"0",20,"Homme","Economie et Gestion, Math-Eco","Licence 1","Francaise","5 (Facile)","J'ai tenté de motiver le groupe en donnant beaucoup durant les 2 premières phases, mais les autres n'ont donné que 2 et 0 respectivement. Voyant qu'il ne cherchait pas à prendre part à la cagnotte je n'ai mis que des 0 par la suite.","",NA,"Je pensais qu'ils allaient au moins tenter de jouer le jeu.",6,2,45,"15",NA,0,7.33333349227905,10.472222328186,12,9.52777767181396,0,1,1,0.270833343267441,0,0,9.17777824401855,8.06666660308838,3,0,0,5,2.00000047683716,0,2,2.00000047683716,0,1,30.4180793762207,31.1111106872559,3,2,92.8571395874023,0,3,2,0,1,3,3,9.00925922393799,"STRAT",22,7.33333333333333,1,13.2,"grouptype_is_mixed",30.7746390458255,"LOW","LOW_STRAT"
"32","160324_1558",0,"subjects",1,3,1,"0","0",20,12,49.4503277861826,"0","55","0",25,20,12,13,NA,NA,NA,12415,12415,0,0,200,380,1,"228","CondCoop",NA,1,200,3,5,25,200,32,"0.6666666666666666",0.883509833585477,7,1,50,0,0,0,0,0,0,0,50,60,70,80,100,110,120,130,130,130,200,200,200,200,-17,20,39,"8476190476190470",90900,1137238095238090,77000,100,"1152380952380950",100,"5686190476190470",0.971388194297013,180,200,380,200,"228",1,25,29,32,7,1,200,2927777777777770,"0.8835098335854766",18,"Femme","Economie et Gestion, Math-Eco","Licence 1","Francaise","4","J'ai voulu que tout le monde investisse le montant maximal (20) car c'était preferable pour tout la monde donc pendant les premières periodes, j'ai misé 20 mais les autres zero, mais j'ai continué pensant les encourager,","rien à faire (il n'avaient surement pas reflechi à la meilleurs strategie..) du coup j'ai misé de tout petits montant le reste des periodes car miser tout laors qu'ils ne misait rien m'etait defavorable et leur etait plus favorable, dommage.",NA,"Je pensais bien qu'au debut,ils ne miseraient pas beaucoup mais j'ai pensé que mes mises les encourageraient, ce n'était pas le cas.",9,7,147,"49",NA,1,6.66666650772095,9.54166698455811,12.4399995803833,9.95652198791504,0,1,1,0.630208313465118,1,2,9.17777824401855,10.5614032745361,3,0,0,15,-4.76837158203125e-07,0,0,-4.76837158203125e-07,1,1,12.1129598617554,59.4688186645508,7,3,84.7619018554688,0,1,1,0,0,3,3,9.00925922393799,"RAND",20,6.66666666666667,0,12,"grouptype_is_mixed",40.3440354121141,"MEDIUM","LOW_STRAT"
"33","160321_1405",2,"subjects",1,11,7,"0","0",0,33.2,30.7947269303201,"82","44","0",26,22,33.2,14,NA,NA,NA,11.44,11.44,1,100,0,235,1,"341","Freerider",NA,1,200,1,5,50,200,3822222222222220,"0.6666666666666666",0.390508474576271,7,1,0,0,0,0,0,0,0,0,0,0,0,0,0,0,0,0,0,0,0,0,0,0,-144,-15,81,"0",0,0,77000,100,"0",100,"0",0,235,0,235,0,"341",6,50,59,3822222222222220,1177777777777770,1,200,2502777777777770,"0.3905084745762713",20,"Femme","Autres","Licence 3","Francaise","3","mettre 0 tout le temps","",NA,"comme moi, à peu près",7,2,35,"15",NA,1,7.33333349227905,10.472222328186,6.86666679382324,9.52777767181396,1,0,1,0.260416656732559,0,0,9.17777824401855,8.06666660308838,3,0,0,0,22,2,2,22,0,1,30.4180793762207,31.1111106872559,3,2,0,1,3,2,0,1,1,3,9.00925922393799,"STRAT",22,7.33333333333333,11,33.2,"grouptype_is_mixed",30.7746390458255,"LOW","LOW_STRAT"
"34","160323_1352",1,"subjects",1,9,6,"0","0",10,28,40.0539811066127,"-46","-117","0",-8,30,28,2,NA,NA,NA,13.22,13.22,0,0,50,180,0,"258","Others",0,1,200,2,5,33,200,2622222222222220,"0.6666666666666666",0.801619433198381,6,0,50,200,190,180,170,160,150,140,130,120,110,100,90,80,70,60,50,40,30,20,10,0,-55,-84,3,"100",-77000,77000,77000,100,"-100",100,"3850",-1,100,0,180,50,"258",2,33,46,2622222222222220,6777777777777770,1,200,2483333333333330,"0.8016194331983806",20,"Homme","Autres","Licence 1","Francaise","3","Si tout le monde contribué 10 , on aurait fait des bénéfices, mais par manque de confiance , les  gens mettent 0","",NA,"Ils ne réfléchisse pas, le groupe ne prenait pas de risque de perdre des points",7,5,105,"38",0,0,10,9.20833301544189,11.6666669845581,8.08571434020996,0,0,0,0.442708343267441,0,2,7.85416650772095,10.5614032745361,3,0,0,5,20,0,10,20,2,1,40.0539817810059,60.6567687988281,5,2,100,0,1,0,0,0,1,3,9.00925922393799,"PREF",30,10,10,28,"Others",48.349077822762,"MEDIUM","HIGH_STRAT"
"35","160329_1355",0,"subjects",1,17,6,"0","0",10,31,33.5283930361863,"-31","-117","0",8,35,31,11,NA,NA,NA,14.15,14.15,1,100,150,360,1,"266","CondCoop",NA,1,200,1,5,50,100,40,"0.6666666666666666",0.472518457752256,5,1,90,70,90,90,90,50,80,90,100,100,100,90,100,100,100,120,150,150,150,150,150,150,-347,34,-16,"1080952380952380",33100,1832380952380950,77000,100,"419047619047619",100,"9161904761904760",0.88120052429306,210,150,360,150,"266",7,50,68,40,10,1,100,3213888888888880,"0.4725184577522559",22,"Homme","Economie et Gestion, Math-Eco","Licence 2","Francaise","2","Au départj'ai contribuer 10 pour voir combien j'ai de gain et par la suite j'augmentais ou diminuais la valeur à contribuer.","",NA,"pas mal",6,8,185,"62",NA,0,11.6666669845581,9.54166698455811,12.4399995803833,9.15999984741211,1,1,2,0.3125,0,1,10.3541669845581,9.89583301544189,3,0,0,1,25,10,10,25,1,1,28.8888893127441,55.5555572509766,4,2,108.095237731934,0,2,1,0,0,3,3,9.00925922393799,"RAND",35,11.6666666666667,12.5,31,"grouptype_is_mixed",39.3242791602103,"MEDIUM","LOW_STRAT"
"36","160321_1405",2,"subjects",1,16,7,"0","0",2,31.2,30.4180790960452,"54","9","0",23,22,31.2,16,NA,NA,NA,7.74e+15,7.74e+15,0,0,0,210,1,"326","Freerider",NA,1,200,2,5,45,200,3177777777777770,"0.6666666666666666",0.512542372881356,4,1,30,0,0,0,0,0,0,0,0,0,0,0,0,0,0,0,0,0,0,0,0,0,-27,22,98,"0",0,0,77000,100,"0",100,"0",0,210,0,210,0,"326",4,45,84,3177777777777770,1322222222222220,1,200,2502777777777770,"0.512542372881356",22,"Homme","Economie et Gestion, Math-Eco","Licence 2","Francaise","4","participer le moins possible au pot pour  récolter plus. Tenter de stimuler le pot lorsque les 2 autres ont compris. Cela a  seulement fonctionner pour un tour.","",NA,"de manière plus réfléchis car ils auraient fait des gains s'ils participaient au pot, c'est juste qu'ils en gagnaient moins que moi...",8,2,40,"15",NA,0,7.33333349227905,10.472222328186,6.86666679382324,9.52777767181396,1,0,1,0.23958332836628,0,0,9.17777824401855,8.06666660308838,3,0,0,-1,20,0,2,20,0,1,30.4180793762207,31.1111106872559,3,1,0,1,3,2,0,1,3,3,9.00925922393799,"STRAT",22,7.33333333333333,10,31.2,"grouptype_is_mixed",30.7746390458255,"LOW","LOW_STRAT"
"37","160324_1558",0,"subjects",1,19,7,"0","0",5,28.2,17.7777777777778,"77","61","14",11,22,28.2,2,NA,NA,NA,15905,15905,1,100,200,260,1,"156","CondCoop",NA,1,200,1,5,67,0,2711111111111110,"0.6666666666666666",0,3,1,0,0,10,20,30,40,50,60,70,80,90,100,110,120,130,140,150,160,170,180,190,200,41,28,16,"100",77000,77000,77000,100,"100",100,"3850",1,60,200,260,200,"156",8,67,16,2711111111111110,3988888888888880,0,0,2927777777777770,"0",20,"Femme","Economie et Gestion, Math-Eco","Licence 2","Autre Non-Européenne","5 (Facile)","Contribuer 20 avec les autres  pourque le gain soit maximal","",NA,"au debut tous ont contribué 20, mais a la fin 0. peut etre il fallait a continuer contribuer 20",1,7,163,"55",NA,1,7.33333349227905,9.54166698455811,12.4399995803833,9.15999984741211,0,1,1,0.109375,0,1,9.17777824401855,9.89583301544189,3,0,0,5,17,7,7,17,1,1,17.7777786254883,47.2281074523926,2,1,100,0,2,1,0,0,3,2,9.00925922393799,"RAND",22,7.33333333333333,8.5,28.2,"grouptype_is_mixed",36.097943631983,"LOW","LOW_STRAT"
"38","160321_1553",2,"subjects",1,20,8,"0","0",10,28,0,"106","75","0",26,30,28,11,NA,NA,NA,8535,8535,0,0,100,180,1,"208","CondCoop",NA,0,0,0,5,66,0,22,"0.6666666666666666",0,6,1,50,0,5,10,15,20,25,30,35,40,45,50,55,60,65,70,75,80,85,90,95,100,-216,-14,-192,"50",38500,19250,77000,100,"50",100,"962.5",1,80,100,180,100,"208",4,66,86,22,44,0,0,3141666666666660,"0",26,"Femme","Economie et Gestion, Math-Eco","Doctorat","Francaise","3","voir le comportement des autres","",NA,"Mieux et plus en fonction de ce que les autres jouaient",5,3,68,"24",NA,1,10,10.472222328186,12,9.52777767181396,0,1,1,0.00520833348855376,0,0,9.17777824401855,8.06666660308838,3,0,0,5,20,0,10,20,0,1,0,6.66666650772095,1,1,50,0,3,0,0,1,3,3,9.00925922393799,"STRAT",30,10,10,28,"grouptype_is_mixed",4.44444444444444,"LOW","LOW_STRAT"
"39","160321_1143",2,"subjects",1,10,5,"0","0",20,30,40.7889546351085,"0","62","0",27,50,30,16,NA,NA,NA,19.54,19.54,3,300,200,530,1,"318","CondCoop",NA,1,200,1,5,65,0,44,"0.6666666666666666",0.0236686390532545,2,1,100,0,10,20,30,40,50,60,70,80,90,100,110,120,130,140,150,160,170,180,190,200,-86,24,83,"100",77000,77000,77000,100,"100",100,"3850",1,330,200,530,200,"318",3,65,87,44,21,0,0,23.75,"0.02366863905325445",21,"Homme","Sciences dures (Mathématiques, Chimie, Biologie, Physique, Informatique)","Licence 2","Francaise","5 (Facile)","Partager au maximum, tout garder si quelqu'un ne partage plus","",NA,"Partager tout, mais tenter de prendre un maximum sur la fin",3,1,10,"5",NA,0,16.6666660308838,10.472222328186,12,9.52777767181396,1,1,2,0.458333343267441,0,1,10.3541669845581,9.89583301544189,3,0,0,10,29.9999980926514,10,20,29.9999980926514,1,1,40.7889556884766,44.996711730957,5,2,100,0,2,0,0,0,4,3,9.00925922393799,"STRAT",50,16.6666666666667,15,30,"grouptype_is_mixed",42.4326101249178,"MEDIUM","HIGH_STRAT"
"40","160321_1553",2,"subjects",1,15,8,"0","0",0,38,6.66666666666667,"74","53","0",19,30,38,8,NA,NA,NA,11.16,11.16,0,0,80,180,0,"228","Others",NA,1,200,1,5,80,0,3866666666666660,"0.6666666666666666",0,6,0,80,0,20,20,20,20,20,20,30,30,10,0,30,30,20,20,40,30,50,60,0,10,-376,29,-56,"2285714285714280",6000,4628571428571420,77000,100,"-1285714285714280",100,"2314285714285710",0.317820863081864,50,10,180,80,"228",1,80,23,3866666666666660,4133333333333330,0,0,3141666666666660,"0",20,"Homme","Sciences dures (Mathématiques, Chimie, Biologie, Physique, Informatique)","Licence 2","Autre Non-Européenne","3","Comme dans le calcul des gains à chaque il y avait 20 (-) ma contribution. J'ai décidé de ne rien investir pour gagner le plus pour qu'on ne soustrait rien à mon gain et attendre la contribution des autres.","",NA,"Je pensais qu'ils allaient faire la meme chose que moi.",7,3,63,"24",NA,0,10,10.472222328186,9.5,9.52777767181396,1,0,1,0.0625,0,0,9.17777824401855,8.06666660308838,3,0,0,-8,30,10,10,30,0,1,0,6.66666650772095,1,1,22.8571434020996,0,3,0,0,1,4,2,9.00925922393799,"STRAT",30,10,15,38,"grouptype_is_mixed",4.44444444444444,"LOW","LOW_STRAT"
"41","160324_1558",0,"subjects",1,16,6,"0","0",0,32,21.19011598588,"1","-77","0",26,20,32,5,NA,NA,NA,17.01,17.01,0,0,100,320,1,"292","Freerider",NA,1,200,1,5,50,0,32,"0.6666666666666666",0.435703479576399,4,1,0,0,0,0,0,0,0,0,0,0,0,0,0,0,0,0,0,0,0,0,0,100,32,44,-26,"4761904761904760",10000,952380952380953,77000,100,"9523809523809520",100,"4761904761904760",0.369274472937998,220,100,320,100,"292",1,50,87,32,18,0,0,2927777777777770,"0.4357034795763994",21,"Homme","Droit, Sciences politiques","Licence 3","Autre Non-Européenne","5 (Facile)","0","",NA,"10",5,7,160,"54",NA,0,6.66666650772095,9.54166698455811,3.91666674613953,9.15999984741211,1,0,1,0.140625,0,1,9.17777824401855,9.89583301544189,3,0,0,0,20,10,10,20,1,1,21.1901168823242,72.1129608154297,2,1,4.7619047164917,1,2,1,0,0,2,2,9.00925922393799,"RAND",20,6.66666666666667,10,32,"grouptype_is_mixed",41.6271642292822,"MEDIUM","LOW_STRAT"
"42","160323_1352",1,"subjects",1,1,8,"0","0",2,28.8,44.0665766981556,"0","21","0",22,18,28.8,12,0,0.5,0,14.84,14.84,1,100,20,400,0,"420","CondCoop",1,1,200,3,5,50,0,3111111111111110,"0.6666666666666666",0.388663967611336,1,0,20,0,5,10,15,20,25,30,35,40,45,50,55,60,65,70,75,80,85,90,95,100,-142,44,5,"50",38500,19250,77000,100,"50",100,"962.5",1,280,100,400,20,"420",7,50,87,3111111111111110,1888888888888880,0,0,2483333333333330,"0.388663967611336",22,"Homme","Economie et Gestion, Math-Eco","Licence 3","Francaise","2","mettre le minimum possible et garder un chiffre unique dans mon cas c'était 2","",NA,"environ entre 0 et 15 mais la plupart allaient jouer au dessus de 4 donc je suis gagnant si je joue 2",5,5,97,"40",1,0,6,9.20833301544189,1.5,10.2702703475952,1,1,2,0.520833313465118,1,2,10.3541669845581,10.5614032745361,3,0,0,0,16,1,2,16,1,1,36.8960876464844,58.2276191711426,6,3,50,0,1,1,0,0,3,3,9.00925922393799,"PREF",18,6,8,28.8,"grouptype_is_mixed",46.3967611336032,"MEDIUM","HIGH_STRAT"
"43","160323_1352",1,"subjects",1,18,6,"0","0",0,38,44.3364822312191,"43","-47","0",25,30,38,15,NA,NA,NA,14495,14495,1,100,12,192,1,"303.2","Others",0,1,200,3,5,0,0,1377777777777770,"0.6666666666666666",0.396761133603239,4,1,40,30,30,30,30,40,40,40,40,40,40,45,30,30,30,45,15,15,15,20,12,12,-8,14,65,"2995238095238090",-8420,2472952380952380,77000,100,"-1795238095238090",100,"1236476190476190",-0.610181241300071,180,12,192,12,"303.2",3,0,69,1377777777777770,1377777777777770,0,0,2483333333333330,"0.396761133603239",22,"Homme","Economie et Gestion, Math-Eco","Licence 2","Francaise","5 (Facile)","j'ai mis 0 pendant les 14 premiers tours puis 1 jeton symbolique","",NA,"en groupe",5,5,114,"38",0,0,10,9.20833301544189,11.6666669845581,10.2702703475952,0,0,0,0.53125,1,2,7.85416650772095,10.5614032745361,3,0,0,-4,30,10,10,30,1,1,40.0539817810059,60.6567687988281,6,3,29.9523811340332,0,1,0,0,0,3,3,9.00925922393799,"PREF",30,10,15,38,"Others",48.349077822762,"MEDIUM","HIGH_STRAT"
"44","160329_1355",0,"subjects",1,8,3,"0","0",20,15,21.7154315923799,"42","8","3",-11,25,15,-2,NA,NA,NA,8195,8195,1,100,90,360,0,"326","Others",NA,1,200,1,5,62,0,4933333333333330,"0.6666666666666666",0.118129614438064,5,0,90,10,20,30,40,50,60,70,80,90,100,110,100,90,80,70,60,50,40,30,20,10,-15,4,9,"5761904761904760",-909.494701772928,1938095238095230,77000,100,"-4761904761904760",100,"969047619047619",-0.0235432954986084,210,10,360,90,"326",6,62,16,4933333333333330,1266666666666660,0,0,3213888888888880,"0.118129614438064",18,"Homme","Autres","Licence 1","Francaise","4","Au debut je mettais les 20 jetons ensuite j'en mettait un petit peu et a la fin plus du tout","",NA,"En solitaire a ne mettre aucun jetons dans la cagnotte",9,8,176,"59",NA,0,8.33333301544189,9.54166698455811,10,9.15999984741211,0,0,0,0.15104167163372,0,0,7.85416650772095,8.06666660308838,3,0,0,11,4.99999904632568,0,5,4.99999904632568,0,1,12.5731477737427,21.7154312133789,2,1,57.6190490722656,0,3,1,0,1,1,3,9.00925922393799,"RAND",25,8.33333333333333,2.5,15,"grouptype_is_mixed",18.6680035244432,"LOW","LOW_STRAT"
"45","160321_1143",2,"subjects",1,9,8,"0","0",15,28.4,26.6666666666667,"0","-51","0",-1,39,28.4,4,NA,NA,NA,9.26e+15,9.26e+15,0,0,150,530,0,"368","UncondCoop",NA,1,200,4,5,100,0,44,"0.6666666666666666",0,7,0,150,100,100,100,100,100,100,100,100,100,100,100,150,150,150,150,150,150,150,150,200,200,-156,23,44,"1285714285714280",37000,2285714285714280,77000,100,"7142857142857140",100,"1142857142857140",0.881952895052173,380,200,530,150,"368",3,100,86,44,56,0,0,23.75,"0",22,"Homme","Sociologie","Licence 2","Francaise","3","donner le plus possible en influencant les action de mes partenaires pour qu'ils misent plus","",NA,"comme des juifs.",10,1,9,"8",NA,0,13,10.472222328186,12.3333330154419,9.52777767181396,1,0,1,0.19791667163372,0,0,9.17777824401855,8.06666660308838,3,0,0,0,24,4,15,24,0,1,20.0788955688477,29.1518745422363,2,1,128.571426391602,0,3,1,0,1,5,3,9.00925922393799,"STRAT",39,13,12,28.4,"grouptype_is_mixed",25.2991452991453,"LOW","LOW_STRAT"
"46","160321_1553",2,"subjects",1,2,7,"0","0",5,34.8,20.3212851405622,"-27","-33","2",-2,33,34.8,12,NA,NA,NA,10.77,10.77,0,0,100,300,0,"280","CondCoop",NA,1,200,1,5,11,0,2577777777777770,"0.6666666666666666",0.409638554216868,3,0,100,0,15,25,40,50,60,70,80,90,115,120,150,140,160,170,190,200,200,200,200,200,-204,29,-165,"1178571428571420",85100,9657857142857140,77000,100,"8214285714285710",100,"4828928571428570",0.986833329342753,150,200,300,100,"280",3,11,80,2577777777777770,1477777777777770,0,0,3141666666666660,"0.4096385542168676",20,"Femme","Economie et Gestion, Math-Eco","Licence 1","Francaise","4","pousser les autres participants a mettre le maximum dans la cagnotte commune, puis en période 15, ne rien mettre du tout","",NA,"Je pensais qu'ils n'allaient pas beaucoup participer",3,3,50,"23",NA,1,11,10.472222328186,12,9.52777767181396,0,1,1,0.125,0,0,9.17777824401855,8.06666660308838,3,0,0,-5,28,8,8,28,0,1,20.3212852478027,24.4444446563721,2,1,117.857139587402,0,3,1,0,1,3,3,9.00925922393799,"STRAT",33,11,14,34.8,"grouptype_is_mixed",22.9808121374386,"LOW","LOW_STRAT"
"47","160323_1352",1,"subjects",1,15,7,"0","0",20,15.6,76.0053981106613,"0","27","0",23,26,15.6,11,NA,NA,NA,12.88,12.88,3,300,200,300,0,"180","Others",0,1,200,3,5,38,0,1377777777777770,"0.6666666666666666",0.680161943319838,5,0,200,150,150,150,150,150,150,150,150,150,200,200,200,200,200,50,50,50,50,50,50,0,-112,-38,34,"1261904761904760",-51500,8309523809523810,77000,100,"-1261904761904760",100,"4154761904761900",-0.643833837989546,100,0,300,200,"180",3,38,85,1377777777777770,2422222222222220,0,0,2483333333333330,"0.680161943319838",20,"Homme","Economie et Gestion, Math-Eco","Licence 1","Francaise","5 (Facile)","il aurait fallut que tout les participants mettent 20 à chaque période (ce que j'ai fait au début) pour être sur d'être le plus gagant possible. Malheureusement certains sont trop ignorant pour le concevoir et l'appliquer.","",NA,"je ne savais pas comment ils allaient jouer, j'espérais qu'ils jouent du mieux possible (en mettant le maximum à chaque fois)",7,5,111,"39",0,0,8.66666698455811,9.20833301544189,11.6666669845581,10.2702703475952,0,0,0,0.90625,1,2,7.85416650772095,10.5614032745361,3,0,0,0,6.00000095367432,1,5,6.00000095367432,1,1,35.5735473632812,76.0054016113281,10,4,126.190475463867,0,1,0,0,0,3,3,9.00925922393799,"PREF",26,8.66666666666667,3,15.6,"Others",55.1896836107362,"HIGH","HIGH_STRAT"
"48","160323_1155",1,"subjects",1,19,1,"0","0",0,20.6,33.3333333333333,"55","35","0",22,1,20.6,14,NA,NA,NA,7844999999999990,7844999999999990,0,0,0,0,1,"200","Freerider",0,1,200,5,5,68,0,3022222222222220,"0.6666666666666666",0,6,1,20,0,0,0,0,0,0,0,0,0,0,0,0,0,0,0,0,0,0,0,0,0,12,-29,47,"0",0,0,77000,100,"0",100,"0",0,0,0,0,0,"200",2,68,57,3022222222222220,3777777777777770,0,0,2933333333333330,"0",20,"Homme","Sciences dures (Mathématiques, Chimie, Biologie, Physique, Informatique)","Licence 1","Francaise","5 (Facile)","Meilleure rentabilité lors d'une mise à 0.","",NA,"Des mises timides au début puis 0 par la suite.",8,4,91,"25",0,0,0.333333343267441,9.20833301544189,4.83333349227905,8.08571434020996,0,0,0,0.307291656732559,0,0,7.85416650772095,8.06666660308838,3,0,0,-2,1,0,0,1,0,1,30.3030300140381,36.6666679382324,4,2,0,1,3,3,1,1,4,3,9.00925922393799,"PREF",1,0.333333333333333,0.5,20.6,"Freerider",33.4343434343434,"LOW","LOW_STRAT"
"49","160321_1553",2,"subjects",1,19,5,"0","0",18,37.6,44.4444444444444,"0","64","0",22,56,37.6,13,NA,NA,NA,10355,10355,1,100,100,300,0,"280","Freerider",NA,1,200,5,5,80,0,3666666666666660,"0.6666666666666666",0,4,0,100,0,0,0,0,0,0,0,0,0,0,0,0,0,0,0,0,0,0,0,0,0,-24,29,67,"0",0,0,77000,100,"0",100,"0",0,200,0,300,100,"280",6,80,47,3666666666666660,4333333333333330,0,0,3141666666666660,"0",18,"Homme","Sciences dures (Mathématiques, Chimie, Biologie, Physique, Informatique)","Licence 1","Francaise","5 (Facile)","Observer d'abord, puis voir si on peut 'vivre au dépends des autres' c'est à dire ne rien contribuer et gagner plus grace à la cagnotte des autres, qui eux pensent gagner assez grace à leur participation dans la cagnotte.","",NA,"Comme moi",8,3,67,"21",NA,0,18.6666660308838,10.472222328186,6.86666679382324,11.4166669845581,1,0,1,0.546875,1,2,9.17777824401855,10.5614032745361,3,0,0,6,40,20,20,40,1,1,39.8661308288574,44.9263725280762,6,3,0,1,1,1,0,0,4,3,9.00925922393799,"STRAT",58,19.3333333333333,20,36.8,"grouptype_is_mixed",43.0789825970549,"MEDIUM","HIGH_STRAT"
"50","160324_1558",0,"subjects",1,7,3,"0","0",20,18,6.66666666666667,"14","-48","-56",-57,30,18,12,NA,NA,NA,18.86,18.86,0,0,30,330,1,"368","Others",NA,1,200,1,5,100,0,4333333333333330,"0.6666666666666666",0,6,1,200,200,200,200,200,200,200,200,200,200,200,200,200,200,200,200,130,110,90,70,50,30,-137,35,2,"1657142857142850",-57500,687142857142857,77000,100,"-1357142857142850",100,"3435714285714280",-0.790494702627333,300,30,330,30,"368",4,100,58,4333333333333330,5666666666666660,0,0,2927777777777770,"0",19,"Homme","Economie et Gestion, Math-Eco","Licence 1","Francaise","5 (Facile)","Le mieux est que chaque membre du groupe investisse 20 jetons pour que chacun recoive maximum de gain, mais s'il cette règle n'est pas suivie est que certains cherchent à profiter de l'investissement maximum des autres pour","ne rien miser, et s'enrichir plus que les autres alors il faut diminuer l'investissement jusqu'a dissuader ceux qui investissent le moins",NA,"De manière à favoriser leurs gains",8,7,151,"51",NA,0,10,9.54166698455811,10,9.15999984741211,2,0,2,0.0625,0,2,10.3541669845581,10.5614032745361,3,0,0,0,10,0,10,10,2,1,6.66666650772095,53.7098655700684,1,1,165.714279174805,0,1,0,0,0,3,3,9.00925922393799,"RAND",30,10,5,18,"grouptype_is_mixed",34.9918753852188,"LOW","LOW_STRAT"
"51","160321_1553",2,"subjects",1,10,7,"0","0",8,31.8,24.1767068273092,"91","64","-3",-10,33,31.8,13,NA,NA,NA,13.72,13.72,0,0,100,325,0,"295","Others",NA,1,200,1,5,15,0,2444444444444440,"0.6666666666666666",0.525301204819277,2,0,100,0,70,30,40,40,40,10,30,20,100,90,100,50,80,30,60,50,50,60,30,50,27,36,-70,"4904761904761900",9000,1498095238095230,77000,100,"0.952380952380949",100,"7490476190476180",0.264988749121894,111,50,325,100,"295",2,15,32,2444444444444440,9444444444444440,0,0,3141666666666660,"0.5253012048192772",21,"Femme","Autres","Master 1","Francaise","4","J'essayais de voir si les joueurs de mon équipe étaient du genre à parier beaucoup ou non. Lorsque je pariais peu, il y avait toujours un taux de jettons plus ou moins élevé. Je suis donc restée sur des sommes globalement","basses (en dessous de 10) sauf une ou deux fois ou j'allais au dessus pour voir si cela me rapportait plus.",NA,"Je pensais qu'ils allaient miser un peu moins.",7,3,58,"23",NA,1,11,10.472222328186,9.5,9.52777767181396,1,0,1,0.171875,0,0,9.17777824401855,8.06666660308838,3,0,0,-2,25,5,8,25,0,1,20.3212852478027,24.4444446563721,2,1,49.0476188659668,0,3,1,0,1,1,3,9.00925922393799,"STRAT",33,11,12.5,31.8,"grouptype_is_mixed",22.9808121374386,"LOW","LOW_STRAT"
"52","160321_1143",2,"subjects",1,22,7,"0","0",11,27.6,31.1242603550296,"-65","-146","-3",-5,31,27.6,1,NA,NA,NA,8.425e+15,8.425e+15,0,0,190,330,1,"208","Others",NA,1,200,1,5,35,0,2555555555555550,"0.6666666666666666",0.733727810650888,3,1,130,20,60,61,13,85,50,100,77,30,101,99,185,80,160,100,130,120,72,96,106,190,-442,12,-137,"9214285714285710",38500,4541057142857140,77000,100,"9785714285714280",100,"2270528571428570",0.651083790878803,140,190,330,190,"208",4,35,70,2555555555555550,9444444444444440,0,0,23.75,"0.7337278106508876",18,"Femme","Economie et Gestion, Math-Eco","Licence 1","Autre Non-Européenne","2","j'ai commencer à mettre de 10à 13 jetons dans les 1ers période une fois j'ai vu que le total de groupe déminue j'ai déminuer aussi","",NA,"ils préfèrent garder les jetons",5,1,22,"7",NA,1,10.3333330154419,10.472222328186,9.5,9.52777767181396,2,0,2,0.276041656732559,0,0,10.3541669845581,8.06666660308838,3,0,0,-2,20,0,11,20,0,1,31.1242599487305,37.0677185058594,3,2,92.1428604125977,0,3,0,0,1,3,2,9.00925922393799,"STRAT",31,10.3333333333333,10,27.6,"grouptype_is_mixed",33.5218058294981,"LOW","LOW_STRAT"
"53","160324_1558",0,"subjects",1,14,5,"0","0",10,22,12.1129601613717,"93","79","3",0,20,22,1,NA,NA,NA,15.17,15.17,0,0,60,270,0,"302","Freerider",NA,1,200,1,5,60,0,2377777777777770,"0.6666666666666666",0.16338880484115,8,0,60,0,0,0,0,0,0,0,0,0,0,0,0,0,0,0,0,0,0,0,0,0,43,31,36,"0",0,0,77000,100,"0",100,"0",0,210,0,270,60,"302",3,60,11,2377777777777770,3622222222222220,0,0,2927777777777770,"0.1633888048411498",21,"Femme","Economie et Gestion, Math-Eco","Master 1","Francaise","4","Au départ, investir un maximum dans la cagnotte commune mais étant donné l'investissement de mes équipiers (zéro), je l'ai également joué perso pour ne pas être la seule à investir pour la collectivité.","",NA,"Je pensais qu'ils allaient penser plus au collectif. S'ils avaient joué le jeu cela aurait été bénéfique pour tout le monde.",6,7,158,"53",NA,1,6.66666650772095,9.54166698455811,3.91666674613953,9.15999984741211,0,0,0,0.0729166641831398,0,2,7.85416650772095,10.5614032745361,3,0,0,4,10,0,10,10,2,1,12.1129598617554,50.4555397033691,1,1,0,1,1,2,0,0,3,3,9.00925922393799,"RAND",20,6.66666666666667,5,22,"grouptype_is_mixed",35.6709811172746,"LOW","LOW_STRAT"
"54","160323_1155",1,"subjects",1,13,7,"0","0",8,31.8,55.3535353535353,"54","15","0",24,33,31.8,12,NA,NA,NA,13885,13885,1,100,0,120,1,"272","Others",0,1,200,2,5,32,0,1755555555555550,"0.6666666666666666",0.927272727272727,4,1,80,0,0,10,20,30,35,40,45,50,60,70,80,90,100,110,120,130,0,0,0,0,26,40,-11,"4714285714285710",13500,3847857142857140,77000,100,"-4714285714285710",100,"1923928571428570",0.248015564298554,120,0,120,0,"272",4,32,62,1755555555555550,1444444444444440,0,0,2933333333333330,"0.9272727272727273",20,"Homme","Autres","Licence 3","Francaise","4","Tâter le terrain au début, miser sur la confiance et l'enthousiasme des autres joueurs, puis les récompenser en améliorant mes contributions ! Ensuite ne jamais baisser subitement mes contributions sous 10 pour ne pas entraver","la confiance des joueurs, et finir par faire un coup de salaud au dernier tour.",NA,"Maximiser leurs gains en baissant subitement leurs contributions",5,4,85,"31",0,0,11,9.20833301544189,11.6666669845581,10.2702703475952,0,0,0,0.708333313465118,1,2,7.85416650772095,10.5614032745361,3,0,0,0,25,10,10,25,1,1,23.2323226928711,67.9797973632812,8,3,47.1428565979004,0,1,0,0,0,1,3,9.00925922393799,"PREF",33,11,12.5,31.8,"Others",48.8552188552189,"MEDIUM","HIGH_STRAT"
"55","160324_1558",0,"subjects",1,4,2,"0","0",20,24,39.3444276348966,"65","50","0",25,40,24,12,NA,NA,NA,12.22,12.22,0,0,200,240,0,"144","CondCoop",NA,1,200,1,5,30,200,2511111111111110,"0.6666666666666666",0.980332829046899,5,0,200,0,10,20,30,40,50,60,70,80,90,100,110,120,130,130,140,140,150,150,160,160,-96,30,59,"9238095238095230",64400,5498095238095230,77000,100,"6761904761904760",100,"2749047619047610",0.989770203703405,40,160,240,200,"144",6,30,19,2511111111111110,4888888888888890,1,200,2927777777777770,"0.9803328290468986",21,"Homme","Autres","Licence 2","Francaise","3","Contribuer le plus possibler néanmmoins une personne ne jouait pas le jeu donc ne plus rien partager à partir de la 10ème répétition m'a paru être une bonne solution.","",NA,"En partageant au maximum gagnant ainsi le plus d'argent raisonnablement possible.",7,7,148,"50",NA,0,13.3333330154419,9.54166698455811,12.4399995803833,9.15999984741211,1,1,2,0.421875,0,1,10.3541669845581,9.89583301544189,3,0,0,0,20,0,20,20,1,1,38.2450828552246,54.5234489440918,5,2,92.3809509277344,0,2,1,0,0,1,3,9.00925922393799,"RAND",40,13.3333333333333,10,24,"grouptype_is_mixed",44.0376533871239,"MEDIUM","HIGH_STRAT"
"56","160321_1143",2,"subjects",1,6,8,"0","0",4,3.94e+15,20.0788954635109,"-48","-49","21",16,39,3.94e+15,12,NA,NA,NA,10.76,10.76,0,0,100,360,0,"316","Freerider",NA,1,200,1,5,49,0,2311111111111110,"0.6666666666666666",0.402366863905325,6,0,100,0,0,30,10,10,10,10,50,30,10,10,0,0,10,20,20,10,10,10,10,0,-130,20,-115,"1238095238095230",-1.7e+15,2980952380952380,77000,100,"-1238095238095230",100,"1490476190476190",-0.112208573062485,200,0,360,100,"316",2,49,60,2311111111111110,2588888888888880,0,0,23.75,"0.4023668639053254",19,"Femme","Economie et Gestion, Math-Eco","Licence 1","Autre Non-Européenne","3","je prends la plus grand chiffre","",NA,"le contraire",8,1,6,"8",NA,1,13,10.472222328186,6.86666679382324,9.52777767181396,1,0,1,0.11979166418314,0,0,9.17777824401855,8.06666660308838,3,0,0,-6,35,15,15,35,0,1,20.0788955688477,29.1518745422363,2,1,12.380952835083,1,3,1,0,1,3,2,9.00925922393799,"STRAT",39,13,17.5,39.4,"grouptype_is_mixed",25.2991452991453,"LOW","LOW_STRAT"
"57","160329_1355",0,"subjects",1,15,5,"0","0",20,24,60.6726825266612,"75","61","0",21,40,24,16,NA,NA,NA,7835,7835,3,300,200,250,0,"150","CondCoop",NA,1,200,1,5,45,0,2333333333333330,"0.6666666666666666",0.620180475799836,7,0,200,1,1,1,1,1,1,1,1,1,1,1,50,50,50,90,100,100,100,180,190,200,14,39,-32,"5338095238095230",75550,9427095238095230,77000,100,"1466190476190470",100,"4713547619047610",0.886747879867399,120,200,250,200,"150",5,45,-15,2333333333333330,2166666666666660,0,0,3213888888888880,"0.6201804757998359",19,"Homme","Economie et Gestion, Math-Eco","Licence 2","Autre Non-Européenne","5 (Facile)","commencer par 20","",NA,"ils sont cons",5,8,183,"61",NA,0,13.3333330154419,9.54166698455811,12.4399995803833,9.95652198791504,1,1,2,0.791666686534882,1,2,10.3541669845581,10.5614032745361,3,0,0,0,20,0,20,20,1,1,30.5842666625977,60.6726837158203,8,4,53.3809509277344,0,1,1,0,0,3,2,9.00925922393799,"RAND",40,13.3333333333333,10,24,"grouptype_is_mixed",48.8171846990551,"MEDIUM","HIGH_STRAT"
"58","160323_1557",1,"subjects",1,1,2,"0","0",20,18,77.0561705617056,"0","41","0",10,30,18,15,0,0.5,0,15.29,15.29,2,200,60,110,0,"206","Freerider",0,1,200,5,5,15,200,1311111111111110,"0.6666666666666666",0.645018450184502,4,0,60,0,0,0,0,0,0,0,0,0,0,0,0,0,0,0,0,0,0,0,0,0,-122,-228,55,"0",0,0,77000,100,"0",100,"0",0,50,0,110,60,"206",2,15,-27,1311111111111110,1888888888888880,1,200,2836111111111110,"0.645018450184502",29,"Homme","Economie et Gestion, Math-Eco","Doctorat","Francaise","4","je contribue au début, voir si les autres suivent, puis je contribue au max tant que je gagne plus que 20, pour ne pas lancer une dynamique de free ride. Tant mieux pour les petits rigolos qui ont empoché encore plus que moi :D","",NA,"J'esperai un peu plus de contribution mais n'avais pas d'interet à dévier a moyen terme",8,6,121,"42",0,0,10,9.20833301544189,4.83333349227905,10.2702703475952,0,0,0,0.911458313465118,1,2,7.85416650772095,10.5614032745361,3,0,0,14,10,5,5,10,1,1,21.0824108123779,77.0561676025391,10,4,0,1,1,3,1,0,3,3,9.00925922393799,"PREF",30,10,5,18,"Freerider",53.9702063687304,"HIGH","HIGH_STRAT"
"59","160323_1352",1,"subjects",1,8,3,"0","0",0,21.2,55.4475933423302,"0","88","8",5,2,21.2,10,NA,NA,NA,12695,12695,2,200,0,300,1,"380","Freerider",0,1,200,3,5,0,0,1688888888888880,"0.6666666666666666",0.396761133603239,5,1,0,0,0,0,0,0,0,0,0,0,0,0,0,0,0,0,0,0,0,0,0,0,-203,1,5,"0",0,0,77000,100,"0",100,"0",0,300,0,300,0,"380",1,0,11,1688888888888880,1688888888888880,0,0,2483333333333330,"0.396761133603239",23,"Homme","Economie et Gestion, Math-Eco","Master 1","Francaise","4","Jouer l'équilibre de Nash, quand les partenaires sont inconnus il est difficile d'établir une coopération.","",NA,"De façon aléatoire au début, puis tendre vers l'équilibre de nash.",6,5,104,"35",0,0,0.666666686534882,9.20833301544189,4.83333349227905,10.2702703475952,0,0,0,0.71875,1,1,7.85416650772095,9.89583301544189,3,0,0,0,2,0,0,2,0,1,23.6707153320312,55.4475936889648,8,3,0,1,2,3,1,0,3,3,9.00925922393799,"PREF",2,0.666666666666667,1,21.2,"Freerider",35.6125356125356,"LOW","LOW_STRAT"
"60","160329_1355",0,"subjects",1,13,5,"0","0",0,44,55.1946039558837,"28","-57","0",25,40,44,11,NA,NA,NA,15035,15035,2,200,0,300,0,"380","Freerider",NA,1,200,1,5,25,200,2288888888888880,"0.6666666666666666",0.789171452009844,3,0,0,0,0,0,0,0,0,0,0,0,0,0,0,0,0,0,0,0,0,0,0,0,-69,-19,17,"0",0,0,77000,100,"0",100,"0",0,100,0,300,0,"380",2,25,-15,2288888888888880,2111111111111110,1,200,3213888888888880,"0.7891714520098443",20,"Femme","Economie et Gestion, Math-Eco","Licence 3","Autre Européenne","5 (Facile)","si je donne 0 je gagne le max en fonction de choix des autres. pour chaque jetons doné je gagne 0.6. donc le montant net( ce que je recois) de contribution d 'un jeton est -0.4","",NA,"pareil",4,8,181,"61",NA,1,13.3333330154419,9.54166698455811,3.91666674613953,9.95652198791504,2,0,2,0.692708313465118,1,2,10.3541669845581,10.5614032745361,3,0,0,0,40,20,20,40,1,1,30.5842666625977,60.6726837158203,7,3,0,1,1,1,0,0,3,1,9.00925922393799,"RAND",40,13.3333333333333,20,44,"grouptype_is_mixed",48.8171846990551,"MEDIUM","HIGH_STRAT"
"61","160323_1352",1,"subjects",1,4,3,"0","0",2,19.2,27.719298245614,"67","46","0",24,2,19.2,5,NA,NA,NA,12395,12395,0,0,0,110,1,"266","Freerider",0,1,200,1,5,40,0,3111111111111110,"0.6666666666666666",0.631578947368421,8,1,20,10,0,10,10,10,20,20,10,10,10,10,10,10,10,10,10,10,10,10,0,0,-4,23,-92,"9523809523809520",-1900,4952380952380950,77000,100,"-9523809523809520",100,"2476190476190470",-0.307681380924865,110,0,110,0,"266",6,40,71,3111111111111110,8888888888888890,0,0,2483333333333330,"0.631578947368421",20,"Femme","Economie et Gestion, Math-Eco","Licence 3","Francaise","4","Après les premiers tours, j'ai pu constater que mes coéquipiers dans le groupe ne prenait pas le risque de donner dans la cagnotte, j'ai donc choisi la même stratégie afin de ne pas perdre de jetons. Ma stratégie a été de","ne rien verser dans la cagnotte commune.",NA,"Je pensais que les autres joueurs auraient été plus parieurs, ce qui d'ailleurs aurait pu être au bénéfice de l'ensemble du groupe à partir d'une certaines sommes.",4,5,100,"35",0,1,0.666666686534882,9.20833301544189,4.83333349227905,8.08571434020996,0,0,0,0.203125,0,1,7.85416650772095,9.89583301544189,3,0,0,0,5.96046447753906e-08,0,0,5.96046447753906e-08,1,1,23.6707153320312,55.4475936889648,3,1,9.5238094329834,1,2,3,1,0,3,3,9.00925922393799,"PREF",2,0.666666666666667,0,19.2,"Freerider",35.6125356125356,"LOW","LOW_STRAT"
"62","160323_1352",1,"subjects",1,12,3,"0","0",0,21.2,23.6707152496626,"79","29","0",23,2,21.2,15,NA,NA,NA,12.67,12.67,0,0,0,192,0,"315.2","Freerider",0,1,200,1,5,45,0,2222222222222220,"0.6666666666666666",0.510121457489879,4,0,0,0,0,0,0,0,0,0,0,0,0,0,0,0,0,0,0,0,0,0,0,0,33,44,-6,"0",0,0,77000,100,"0",100,"0",0,220,0,192,0,"315.2",4,45,84,2222222222222220,2277777777777770,0,0,2483333333333330,"0.5101214574898786",18,"Homme","Economie et Gestion, Math-Eco","Licence 1","Francaise","4","Ma stratégie était de ne pas investir dans la cognotte commune afin de ne pas perdre de jetons, j'attendais de voir si les autres de mon groupe allaient investir. Si c'était le cas j'aurais alors fait la même chose","",NA,"Je pensais qu'il allait jouer comme moi, c'est-à-dire ne pas investir au début pour voir la réaction des autres individus",4,5,108,"35",0,0,0.666666686534882,9.20833301544189,4.83333349227905,8.08571434020996,0,0,0,0.16145832836628,0,1,7.85416650772095,9.89583301544189,3,0,0,0,2,0,0,2,1,1,23.6707153320312,55.4475936889648,2,1,0,1,2,3,1,0,3,3,9.00925922393799,"PREF",2,0.666666666666667,1,21.2,"Freerider",35.6125356125356,"LOW","LOW_STRAT"
"63","160323_1155",1,"subjects",1,8,1,"0","0",1,19.6,30.3030303030303,"0","40","6",-1,1,19.6,14,NA,NA,NA,7794999999999990,7794999999999990,0,0,10,90,1,"244","Freerider",0,1,200,1,5,40,200,3111111111111110,"0.6666666666666666",0.709090909090909,2,1,50,0,0,0,0,0,0,0,0,0,0,0,0,0,0,0,0,0,0,0,10,10,-412,20,-32,"0.9523809523809523",1900,180952380952381,77000,100,"9047619047619040",100,"9047619047619040",0.509009733787979,80,10,90,10,"244",3,40,56,3111111111111110,8888888888888890,1,200,2933333333333330,"0.7090909090909091",23,"Femme","Autres","Master 1","Francaise","2","je gardais tous les jetons, j'ai essayé deux fois de mettre un jeton pour voir si cela allait inciter les autres à en mettre.","",NA,"qu'ils allaient tout garder pour eux",2,4,80,"25",0,1,0.333333343267441,9.20833301544189,4.83333349227905,8.08571434020996,0,0,0,0.234375,0,0,7.85416650772095,8.06666660308838,3,0,0,-4,2.98023223876953e-08,0,0,2.98023223876953e-08,0,1,30.3030300140381,36.6666679382324,3,1,0.952380955219269,1,3,3,1,1,1,3,9.00925922393799,"PREF",1,0.333333333333333,0,19.6,"Freerider",33.4343434343434,"LOW","LOW_STRAT"
"64","160321_1405",2,"subjects",1,6,3,"0","0",2,26.4,55.1939736346516,"0","88","-11",-13,14,26.4,10,NA,NA,NA,13265,13265,2,200,30,105,0,"233","UncondCoop",NA,1,200,3,5,0,0,8222222222222220,"0.6666666666666666",0.389152542372882,1,0,30,20,20,20,20,20,20,20,20,20,20,20,20,20,20,20,20,20,20,20,20,20,-90,30,18,"20",0,0,77000,100,"0",100,"0",0,140,20,105,30,"233",3,0,80,8222222222222220,8222222222222220,0,0,2502777777777770,"0.3891525423728816",19,"Homme","Droit, Sciences politiques","Licence 2","Francaise","4","Ne jamais mettre de jeton dans la cagnotte et laisser les autres faire l'erreur d'en mettre pour récolter le maximum de jeton","",NA,"au départ mettre un certain nombre de jetons, puis de moins en moins jusqu'à 0",7,2,30,"11",NA,0,4.66666650772095,10.472222328186,12.3333330154419,11.4166669845581,1,0,1,0.6875,1,2,9.17777824401855,10.5614032745361,3,0,0,3,12,2,2,12,1,1,32.4369125366211,59.2617683410645,7,3,20,0,1,1,0,0,2,3,9.00925922393799,"STRAT",17,5.66666666666667,7.5,28.2,"grouptype_is_mixed",48.9642184557439,"HIGH","HIGH_STRAT"
"65","160321_1553",2,"subjects",1,12,6,"0","0",0,32,25.4082998661312,"0","53","0",25,20,32,14,NA,NA,NA,11485,11485,1,100,0,180,0,"308","Freerider",NA,1,200,2,5,65,0,2577777777777770,"0.6666666666666666",0.0289156626506024,6,0,0,0,10,0,0,0,50,0,0,0,90,0,0,0,0,0,0,0,0,0,0,0,-64,39,-17,"7142857142857140",-4.3e+15,9628571428571420,77000,100,"-7142857142857140",100,"4814285714285710",-0.157921828824969,130,0,180,0,"308",3,65,72,2577777777777770,3922222222222220,0,0,3141666666666660,"0.02891566265060241",21,"Homme","Autres","Licence 3","Francaise","5 (Facile)","voir le jeu des autres","",NA,"je sais pas",7,3,60,"22",NA,0,6.66666650772095,10.472222328186,6.86666679382324,9.52777767181396,1,0,1,0.19270832836628,0,0,9.17777824401855,8.06666660308838,3,0,0,0,20,10,10,20,0,1,25.4083003997803,39.8661308288574,2,1,7.14285707473755,1,3,1,0,1,1,3,9.00925922393799,"STRAT",20,6.66666666666667,10,32,"grouptype_is_mixed",30.2275769745649,"LOW","LOW_STRAT"
"66","160323_1155",1,"subjects",1,16,8,"0","0",20,30,43.3333333333333,"111","62","-13",-15,50,30,10,NA,NA,NA,13.2,13.2,0,0,0,120,0,"272","UncondCoop",1,1,200,2,5,33,0,3777777777777770,"0.6666666666666666",0.9,4,0,0,200,200,200,200,200,200,200,200,200,200,200,200,200,200,200,200,200,200,200,200,200,-112,5,-20,"200",0,0,77000,100,"0",100,"0",0,200,200,120,0,"272",8,33,53,3777777777777770,4777777777777770,0,0,2933333333333330,"0.9",23,"Homme","Economie et Gestion, Math-Eco","Master 1","Autre Européenne","5 (Facile)","J attendais l etape 14 pour mettre 0 car je pensais que a la derniere etape, les autres mettraient des contributions 0.","",NA,"Jusque l etape 15: cotribution 20 \r\nensuite 0",4,4,88,"32",1,0,16.6666660308838,9.20833301544189,20,8.08571434020996,0,0,0,0.5,0,2,7.85416650772095,10.5614032745361,3,0,0,0,29.9999980926514,10,20,29.9999980926514,2,1,43.3333320617676,81.2121200561523,5,2,200,0,1,2,0,0,3,1,9.00925922393799,"PREF",50,16.6666666666667,15,30,"grouptype_is_mixed",56.3299663299663,"HIGH","HIGH_STRAT"
"67","160321_1143",2,"subjects",1,15,7,"0","0",0,38.6,32.3734385272847,"97","74","0",16,31,38.6,-7,NA,NA,NA,11925,11925,1,100,100,270,1,"262","CondCoop",NA,1,200,1,5,0,100,9777777777777770,"0.6666666666666666",0.437869822485207,1,1,0,0,0,0,0,0,20,20,35,40,45,50,55,60,65,70,75,80,85,90,95,100,-133,19,-35,"4690476190476190",42650,2407380952380950,77000,100,"530952380952381",100,"1203690476190470",0.990606704335981,170,100,270,100,"262",5,0,86,9777777777777770,9777777777777770,1,100,23.75,"0.4378698224852071",19,"Femme","Droit, Sciences politiques","Licence 2","Francaise","5 (Facile)","Tit-for-tat = donnant-donnant. Si les adversaires coopéraient, je coopérais et inversement","",NA,"Ils ne coopéreraient pas",6,1,15,"7",NA,1,10.3333330154419,10.472222328186,12,9.52777767181396,1,1,2,0.291666656732559,0,0,10.3541669845581,8.06666660308838,3,0,0,0,31,11,11,31,0,1,31.1242599487305,37.0677185058594,3,2,46.9047622680664,0,3,0,0,1,2,3,9.00925922393799,"STRAT",31,10.3333333333333,15.5,38.6,"grouptype_is_mixed",33.5218058294981,"LOW","LOW_STRAT"
"68","160323_1352",1,"subjects",1,11,7,"0","0",5,30.6,53.9901034637877,"38","11","0",11,26,30.6,3,NA,NA,NA,16.03,16.03,2,200,20,120,0,"252","Others",0,1,200,1,5,35,0,2622222222222220,"0.6666666666666666",0.753036437246964,2,0,20,0,0,10,10,20,20,60,50,50,50,10,10,50,40,40,50,10,20,10,30,10,-301,-30,39,"2619047619047610",3799999999999990,7695238095238090,77000,100,"-1619047619047610",100,"3847619047619040",0.156108734520844,100,10,120,20,"252",2,35,85,2622222222222220,8777777777777770,0,0,2483333333333330,"0.7530364372469636",20,"Femme","Autres","Licence 2","Francaise","4","j'ai généralement misé 0 ","",NA,"aléatoirement",8,5,107,"39",0,1,8.66666698455811,9.20833301544189,11.6666669845581,10.2702703475952,0,0,0,0.671875,1,2,7.85416650772095,10.5614032745361,3,0,0,3,21,1,5,21,1,1,35.5735473632812,76.0054016113281,7,3,26.1904754638672,0,1,0,0,0,1,3,9.00925922393799,"PREF",26,8.66666666666667,10.5,30.6,"Others",55.1896836107362,"HIGH","HIGH_STRAT"
"69","160323_1155",1,"subjects",1,7,7,"0","0",10,29.8,23.2323232323232,"33","-6","0",22,33,29.8,14,NA,NA,NA,15.56,15.56,1,100,80,90,0,"174","Others",0,1,200,1,5,60,0,2622222222222220,"0.6666666666666666",0.163636363636364,2,0,80,0,10,20,50,80,100,110,120,120,120,120,140,140,120,120,120,100,100,80,40,40,-453,-5,-44,"880952380952381",18200,3812380952380950,77000,100,"-480952380952381",100,"1906190476190470",0.335913826298804,50,40,90,80,"174",5,60,75,2622222222222220,3377777777777770,0,0,2933333333333330,"0.1636363636363637",21,"Femme","Autres","Master 1","Francaise","3","Si les autres membres du groupes \""misaient\"" beaucoup, je misais peu.","",NA,"Qu'ils allaient miser de façon relativement stable (entre 11 et 14 par session)",2,4,79,"31",0,1,11,9.20833301544189,11.6666669845581,8.08571434020996,0,0,0,0.15625,0,2,7.85416650772095,10.5614032745361,3,0,0,2,23,8,10,23,2,1,23.2323226928711,67.9797973632812,2,1,88.0952377319336,0,1,0,0,0,1,3,9.00925922393799,"PREF",33,11,11.5,29.8,"Others",48.8552188552189,"MEDIUM","HIGH_STRAT"
"70","160321_1405",2,"subjects",1,15,6,"0","0",10,20.2,34.8173258003767,"94","54","20",16,17,20.2,14,NA,NA,NA,11345,11345,1,100,60,210,0,"266","CondCoop",NA,1,200,1,5,5,0,2311111111111110,"0.6666666666666666",0.511186440677966,4,0,60,0,1,2,5,10,15,20,25,30,35,40,45,50,55,60,65,70,75,80,85,0,62,42,-96,"3657142857142850",27800,1654314285714280,77000,100,"-3657142857142850",100,"827157142857143",0.778915638350521,180,0,210,60,"266",8,5,75,2311111111111110,1811111111111110,0,0,2502777777777770,"0.5111864406779663",21,"Femme","Droit, Sciences politiques","Licence 2","Francaise","4","miser entre 2 et 7","",NA,"ne pas trop miser",2,2,39,"14",NA,1,5.66666650772095,10.472222328186,12,9.52777767181396,1,1,2,0.328125,0,0,10.3541669845581,8.06666660308838,3,0,0,4,6.99999952316284,2,5,6.99999952316284,0,1,31.5630893707275,39.2090377807617,4,2,36.5714302062988,0,3,1,0,1,2,3,9.00925922393799,"STRAT",17,5.66666666666667,3.5,20.2,"grouptype_is_mixed",35.1964846202134,"LOW","LOW_STRAT"
"71","160323_1352",1,"subjects",1,23,1,"0","0",0,26,6.66666666666667,"94","65","0",26,10,26,4,NA,NA,NA,13895,13895,0,0,0,110,0,"266","Freerider",0,1,200,1,5,67,0,3111111111111110,"0.6666666666666666",0,8,0,0,0,0,0,0,0,0,0,0,0,0,0,0,0,0,0,0,0,0,0,0,0,62,55,67,"0",0,0,77000,100,"0",100,"0",0,130,0,110,0,"266",6,67,76,3111111111111110,3588888888888880,0,0,2483333333333330,"0",20,"Femme","Autres","Licence 2","Autre Européenne","5 (Facile)","Ne rien donner","",NA,"De la même façon que moi, c-à-d ne rien donner non plus",2,5,119,"33",0,1,3.33333325386047,9.20833301544189,4.83333349227905,8.08571434020996,0,0,0,0.0625,0,1,7.85416650772095,9.89583301544189,3,0,0,0,10,0,0,10,1,1,6.66666650772095,47.9262275695801,1,1,0,1,2,3,1,0,1,1,9.00925922393799,"PREF",10,3.33333333333333,5,26,"Freerider",26.6276803118908,"LOW","LOW_STRAT"
"72","160321_1405",2,"subjects",1,23,6,"0","0",5,25.2,31.5630885122411,"33","-5","21",16,17,25.2,15,NA,NA,NA,10.82,10.82,1,100,20,220,0,"312","Freerider",NA,1,200,1,5,1,0,2733333333333330,"0.6666666666666666",0.413559322033899,5,0,20,0,0,0,0,0,0,0,10,10,10,10,10,10,10,50,50,50,50,50,50,50,-23,-9,-9,"20",24500,9799999999999990,77000,100,"30",100,"4899999999999990",0.891882585015845,110,50,220,20,"312",7,1,71,2733333333333330,2633333333333330,0,0,2502777777777770,"0.4135593220338985",19,"Femme","Droit, Sciences politiques","Licence 2","Francaise","4","Miser un peu mais pas trop (5 en moyenne)","",NA,"Ils uaraient du miser plus",3,2,47,"14",NA,1,5.66666650772095,10.472222328186,12,9.52777767181396,1,0,2,0.28125,0,0,10.3541669845581,8.06666660308838,3,0,0,3,12,2,5,12,0,1,31.5630893707275,39.2090377807617,3,2,20,1,3,1,0,1,2,3,9.00925922393799,"STRAT",17,5.66666666666667,6,25.2,"grouptype_is_mixed",35.1964846202134,"LOW","LOW_STRAT"
"73","160323_1352",1,"subjects",1,24,1,"0","0",0,26,47.9262258209627,"-42","-73","0",24,10,26,14,NA,NA,NA,13.22,13.22,1,100,180,400,0,"260","Freerider",0,1,200,2,5,37,200,3111111111111110,"0.6666666666666666",0.704453441295547,1,0,180,0,0,0,0,0,0,0,0,0,0,0,0,0,0,0,0,0,0,0,0,0,54,-51,87,"0",0,0,77000,100,"0",100,"0",0,120,0,400,180,"260",7,37,85,3111111111111110,5888888888888890,1,200,2483333333333330,"0.7044534412955466",20,"Femme","Sciences dures (Mathématiques, Chimie, Biologie, Physique, Informatique)","Licence 1","Francaise","3","J'ai essayé de pousser les autres candidats à mettre d'avantage dans le pot commun, ça n'a pas marcher donc j'ai gardé mes 20 jetons par la suite, je perdais trop sinon.....","",NA,"Je savais qu'il allait pas mettre grand chose voire rien du tout dans le pot commun",5,5,120,"33",0,1,3.33333325386047,9.20833301544189,4.83333349227905,10.2702703475952,0,0,0,0.619791686534882,1,1,7.85416650772095,9.89583301544189,3,0,0,-18,10,0,0,10,0,1,6.66666650772095,47.9262275695801,7,3,0,1,2,3,1,0,4,3,9.00925922393799,"PREF",10,3.33333333333333,5,26,"Freerider",26.6276803118908,"LOW","LOW_STRAT"
"74","160323_1557",1,"subjects",1,2,3,"0","0",5,18.6,35.8917589175892,"80","54","0",24,6,18.6,13,NA,NA,NA,13.34,13.34,0,0,40,80,0,"208","Freerider",0,1,200,1,5,33,0,1311111111111110,"0.6666666666666666",0.876752767527675,3,0,40,0,0,0,0,0,0,0,0,0,0,0,0,0,0,0,0,0,0,0,0,0,-195,39,-33,"0",0,0,77000,100,"0",100,"0",0,110,0,80,40,"208",2,33,58,1311111111111110,1988888888888880,0,0,2836111111111110,"0.8767527675276752",18,"Homme","Economie et Gestion, Math-Eco","Licence 1","Francaise","4","J'ai commençé en mettant un petit peu, puis en voyant que les autres ne mettaient rien j'ai décidé de ne plus rien donner non plus pour pouvoir gagner plus.","",NA,"Je me doutais qu'ils allaient ne rien mettre.",5,6,122,"43",0,0,2,9.20833301544189,4.83333349227905,8.08571434020996,0,0,0,0.34375,0,0,7.85416650772095,8.06666660308838,3,0,0,1,1,0,1,1,0,1,13.3333330154419,35.8917579650879,4,2,0,1,3,3,1,1,3,3,9.00925922393799,"PREF",6,2,0.5,18.6,"Freerider",23.0750307503075,"LOW","LOW_STRAT"
"75","160324_1558",0,"subjects",1,6,2,"0","0",20,24,54.5234493192133,"2","-21","0",26,40,24,2,NA,NA,NA,13195,13195,3,300,200,380,1,"228","CondCoop",NA,1,200,1,5,50,0,2511111111111110,"0.6666666666666666",0.435703479576399,1,1,200,150,150,150,140,160,160,160,150,150,160,180,170,170,180,190,180,190,190,200,200,200,-105,46,-49,"1704761904761900",22400,7495238095238090,77000,100,"2952380952380950",100,"3747619047619040",0.932416476236087,180,200,380,200,"228",6,50,87,2511111111111110,2488888888888880,0,0,2927777777777770,"0.4357034795763994",22,"Femme","Economie et Gestion, Math-Eco","Licence 2","Autre Européenne","5 (Facile)","Je voullais verse 20 jetons a chaque etape,mais comme les autres 2 joueurs,ont decide de verse 0 jetons,j'ai fais la meme chose","",NA,"Comme moi,essayer d'avoir le plus grand gain possible,mais je me suis trompe.",4,7,150,"50",NA,1,13.3333330154419,9.54166698455811,12.4399995803833,9.95652198791504,1,1,2,0.682291686534882,1,1,10.3541669845581,9.89583301544189,3,0,0,0,20,0,20,20,0,1,38.2450828552246,54.5234489440918,7,3,170.476196289062,0,2,1,0,0,3,1,9.00925922393799,"RAND",40,13.3333333333333,10,24,"grouptype_is_mixed",44.0376533871239,"MEDIUM","HIGH_STRAT"
"76","160324_1558",0,"subjects",1,24,8,"0","0",20,22.8,72.5836275004202,"81","-4","0",25,38,22.8,15,NA,NA,NA,15335,15335,1,100,200,330,0,"198","CondCoop",NA,1,200,5,5,35,200,4333333333333330,"0.6666666666666666",0.844175491679274,6,0,200,0,10,20,30,40,50,60,70,80,90,100,110,120,130,140,150,160,170,180,190,200,19,52,55,"100",77000,77000,77000,100,"100",100,"3850",1,300,200,330,200,"198",4,35,86,4333333333333330,8333333333333320,1,200,2927777777777770,"0.8441754916792738",20,"Homme","Economie et Gestion, Math-Eco","Licence 3","Francaise","5 (Facile)","Au début je pensais que tout le monde jourais 20 ce que j'ai donc fais. Comme ce n'était pas le cas j'ai cherché à maximiser mes gains en donnant confiance aux autres (en mettant de l'argent dans la cagnotte) puis je jouais","0 pour augementer mes gains.",NA,"Je pensais que tout le monde jouerais 20 à chaque période, après quelques période quand je me suis rendu compte que ce n'était pas le cas j'ai changé de stratégie.",5,7,168,"56",NA,0,12.6666669845581,9.54166698455811,12.4399995803833,9.95652198791504,1,1,2,0.875,1,2,10.3541669845581,10.5614032745361,3,0,0,0,18,8,10,18,1,1,42.7836608886719,72.583625793457,9,4,100,0,1,0,0,0,3,3,9.00925922393799,"RAND",38,12.6666666666667,9,22.8,"grouptype_is_mixed",56.0150165293887,"HIGH","HIGH_STRAT"
"77","160321_1553",2,"subjects",1,7,7,"0","0",20,19.8,24.4444444444444,"67","58","0",23,33,19.8,12,NA,NA,NA,9.97e+15,9.97e+15,1,100,0,300,0,"380","Freerider",NA,1,200,2,5,100,0,4111111111111110,"0.6666666666666666",0,4,0,0,0,0,0,0,0,0,0,0,0,0,0,0,0,0,0,0,0,0,0,0,0,-157,2,-21,"0",0,0,77000,100,"0",100,"0",0,300,0,300,0,"380",7,100,67,4111111111111110,5888888888888880,0,0,3141666666666660,"0",24,"Femme","Economie et Gestion, Math-Eco","Doctorat","Francaise","4","contribuer au maximum c'est-à-dire à hauteur de 20 jetons par période","",NA,"de la même façon",3,3,55,"23",NA,1,11,10.472222328186,6.86666679382324,9.52777767181396,1,0,1,0.17708332836628,0,0,9.17777824401855,8.06666660308838,3,0,0,20,13,5,8,13,0,1,20.3212852478027,24.4444446563721,2,1,0,1,3,1,0,1,3,3,9.00925922393799,"STRAT",33,11,6.5,19.8,"grouptype_is_mixed",22.9808121374386,"LOW","LOW_STRAT"
"78","160323_1352",1,"subjects",1,16,1,"0","0",10,16,25.2901484480432,"4","-33","12",7,10,16,14,NA,NA,NA,12345,12345,0,0,180,192,0,"135.2","Freerider",0,1,200,1,5,43,0,2222222222222220,"0.6666666666666666",0.558704453441295,4,0,180,0,0,0,0,0,30,0,0,0,0,40,0,0,0,0,50,0,0,60,0,0,-566,42,-15,"8571428571428570",5.8e+15,7057142857142850,77000,100,"-8571428571428570",100,"3528571428571420",0.248810197817721,40,0,192,180,"135.2",4,43,36,2222222222222220,2077777777777770,0,0,2483333333333330,"0.5587044534412955",24,"Homme","Economie et Gestion, Math-Eco","Master 2","Autre Européenne","2","Une contribution moins importante à la cagnotte","",NA,"Plus d'investissement dans la cagnotte commune",4,5,112,"33",0,0,3.33333325386047,9.20833301544189,4.83333349227905,8.08571434020996,0,0,0,0.18229167163372,0,1,7.85416650772095,9.89583301544189,3,0,0,-8,-2.38418579101562e-07,0,0,-2.38418579101562e-07,1,1,6.66666650772095,47.9262275695801,2,1,8.5714282989502,1,2,3,1,0,3,1,9.00925922393799,"PREF",10,3.33333333333333,0,16,"Freerider",26.6276803118908,"LOW","LOW_STRAT"
"79","160329_1355",0,"subjects",1,14,5,"0","0",20,24,30.5842676146204,"61","32","0",25,40,24,14,NA,NA,NA,10.51,10.51,2,200,200,310,0,"186","CondCoop",NA,1,200,1,5,0,100,2222222222222220,"0.6666666666666666",0.0508613617719444,2,0,200,0,10,20,30,40,50,60,70,80,90,100,110,120,130,140,150,160,170,180,190,200,59,53,79,"100",77000,77000,77000,100,"100",100,"3850",1,200,200,310,200,"186",8,0,86,2222222222222220,2222222222222220,1,100,3213888888888880,"0.05086136177194445",22,"Homme","Economie et Gestion, Math-Eco","Master 2","Francaise","5 (Facile)","J'ai debuté avec 20 jeton dans la cagnotte mais quand j'ai vue que un joueur ne jouait pas le jeu et mettais 0 dans la cagnote j'ai mis également 0 pour ne pas perdre plus de jetons que je n'en gagnais.","",NA,"j'espérais que tous les joueurs mettent 20 jeton dans la cagnote pour un gain maximal a chaque periode pour l'ensemble des joueurs",8,8,182,"61",NA,0,13.3333330154419,9.54166698455811,12.4399995803833,9.15999984741211,1,1,2,0.24479167163372,0,2,10.3541669845581,10.5614032745361,3,0,0,0,20,0,20,20,2,1,30.5842666625977,60.6726837158203,3,1,100,0,1,1,0,0,3,3,9.00925922393799,"RAND",40,13.3333333333333,10,24,"grouptype_is_mixed",48.8171846990551,"MEDIUM","HIGH_STRAT"
"80","160321_1553",2,"subjects",1,17,6,"0","0",10,22,39.8661311914324,"89","49","23",16,20,22,10,NA,NA,NA,8535,8535,1,100,100,360,0,"316","Others",NA,1,200,2,5,50,0,3666666666666660,"0.6666666666666666",0.462650602409639,8,0,100,0,0,0,10,20,50,100,100,100,130,100,100,50,50,50,50,50,50,50,50,50,-107,11,-62,"5523809523809520",13300,2832380952380950,77000,100,"-5238095238095240",100,"1416190476190470",0.284793744526097,260,50,360,100,"316",6,50,85,3666666666666660,1333333333333330,0,0,3141666666666660,"0.4626506024096385",21,"Femme","Autres","Licence 3","Francaise","2","mettre minimum 10 et faire varié en fonction des autres./","",NA,"au moins que tout le monde met 10",5,3,65,"22",NA,1,6.66666650772095,10.472222328186,9.5,9.52777767181396,1,0,1,0.432291656732559,0,0,9.17777824401855,8.06666660308838,3,0,0,0,10,0,10,10,0,1,25.4083003997803,39.8661308288574,5,2,55.238094329834,0,3,1,0,1,1,3,9.00925922393799,"STRAT",20,6.66666666666667,5,22,"grouptype_is_mixed",30.2275769745649,"LOW","LOW_STRAT"
"81","160321_1143",2,"subjects",1,24,1,"0","0",5,32.4,38.2577251808021,"0","56","17",13,29,32.4,6,NA,NA,NA,14.08,14.08,2,200,100,200,1,"220","CondCoop",NA,1,200,3,5,33,200,44,"0.6666666666666666",0.781065088757396,4,1,55,0,5,15,10,10,20,35,50,50,50,60,65,65,70,70,75,80,85,100,100,100,42,16,-58,"530952380952381",40000,2147380952380950,77000,100,"4690476190476190",100,"1073690476190470",0.983694131466313,100,100,200,100,"220",3,33,10,44,11,1,200,23.75,"0.7810650887573964",21,"Femme","Sciences dures (Mathématiques, Chimie, Biologie, Physique, Informatique)","Master 1","Francaise","5 (Facile)","Ne pas trop miser pour voir ce que les autres mettaient","",NA,"mettre un peu plus que moi au dbut et ensuite baisser",7,1,24,"1",NA,1,9.66666698455811,10.472222328186,12,9.52777767181396,1,1,2,0.395833343267441,0,2,10.3541669845581,10.5614032745361,3,0,0,-0.5,24,4,5,24,2,1,38.2577247619629,82.0512847900391,4,2,53.0952377319336,0,1,1,0,0,4,3,9.00925922393799,"STRAT",29,9.66666666666667,12,32.4,"grouptype_is_mixed",63.2719701950471,"HIGH","HIGH_STRAT"
"82","160323_1557",1,"subjects",1,14,8,"0","0",20,30.6,35.5555555555556,"0","7","0",27,51,30.6,14,NA,NA,NA,14805,14805,2,200,200,500,0,"300","Others",0,1,200,2,5,66,0,4311111111111110,"0.6666666666666666",0,1,0,200,0,0,0,0,0,0,0,0,0,0,0,0,0,0,0,0,0,200,200,200,200,9,47,92,"380952380952381",68000,1295238095238090,77000,100,"1619047619047610",100,"6476190476190470",0.680908484039055,250,200,500,200,"300",4,66,87,4311111111111110,2288888888888880,0,0,2836111111111110,"0",19,"Femme","Economie et Gestion, Math-Eco","Licence 1","Francaise","5 (Facile)","Je voulais investir le maximum pour que le gains de tous soit le plus élévé cependant les autres joueurs n'investissait plus alors j'ai réduit mon investissment jusqu'à ne plus investir pour avoir un gain sur et que les autres","ne s'enrichissernt pas grâce à mon investissment;",NA,"tous n'ont pas compris que pour la communauté il faut investir beaucoup et ils n'ont que faiblement investit voir pas du tout !",7,6,134,"48",0,1,17,9.20833301544189,11.6666669845581,8.08571434020996,0,0,0,0.333333343267441,0,1,7.85416650772095,9.89583301544189,3,0,0,0,31,11,20,31,1,1,35.5555572509766,47.4538726806641,4,2,38.0952377319336,0,2,0,0,0,3,3,9.00925922393799,"PREF",51,17,15.5,30.6,"Others",41.003143364767,"MEDIUM","LOW_STRAT"
"83","160323_1557",1,"subjects",1,24,3,"0","0",0,23.6,13.3333333333333,"42","1","15",12,6,23.6,12,NA,NA,NA,14.44,14.44,0,0,0,110,0,"266","Freerider",0,1,200,2,5,70,200,5444444444444440,"0.6666666666666666",0,4,0,0,0,0,0,0,0,0,0,0,0,0,50,0,0,0,0,0,0,0,0,0,200,47,36,-23,"1190476190476190",20000,395238095238095,77000,100,"1880952380952380",100,"1976190476190470",0.362539418863675,110,200,110,0,"266",7,70,83,5444444444444440,1555555555555550,1,200,2836111111111110,"0",20,"Femme","Economie et Gestion, Math-Eco","Licence 3","Francaise","3","poser 0","",NA,"je pensais qu'ils allaient poser beaucoup",2,6,144,"43",0,1,2,9.20833301544189,4.83333349227905,8.08571434020996,0,0,0,0.0989583358168602,0,0,7.85416650772095,8.06666660308838,3,0,0,0,6,1,1,6,0,1,13.3333330154419,35.8917579650879,1,1,11.9047622680664,1,3,3,1,1,3,3,9.00925922393799,"PREF",6,2,3,23.6,"Freerider",23.0750307503075,"LOW","LOW_STRAT"
"84","160323_1557",1,"subjects",1,23,8,"0","0",20,30.6,40,"62","16","0",2,51,30.6,0,NA,NA,NA,15755,15755,3,300,100,250,0,"250","Others",0,1,200,1,5,75,0,2066666666666660,"0.6666666666666666",0,2,0,100,0,5,10,15,20,25,30,35,40,45,50,50,45,40,35,30,25,20,15,10,0,16,-53,-65,"2595238095238090",2250,508095238095238,77000,100,"-2595238095238090",100,"254047619047619",0.113753454201828,130,0,250,100,"250",6,75,67,2066666666666660,5433333333333330,0,0,2836111111111110,"0",20,"Homme","Sciences dures (Mathématiques, Chimie, Biologie, Physique, Informatique)","Licence 1","Francaise","5 (Facile)","Tester des valeurs de mises entre 10 et 20 afin d'encourager l'équipe à conserver ce genre de valeurs pour permettre des bénéfices constants, mais ajustement au 0 quand tout le monde s'y met (car malheureusement tout le monde","y viendra à cause de la pression du groupe)",NA,"j'espérais qu'ils continuent à miser pour garantir des profits, cela n'a pas été le cas",7,6,143,"48",0,0,17,9.20833301544189,11.6666669845581,8.08571434020996,0,0,0,0.4375,0,1,7.85416650772095,9.89583301544189,3,0,0,10,31,11,20,31,1,1,35.5555572509766,47.4538726806641,5,2,25.9523811340332,0,2,0,0,0,4,3,9.00925922393799,"PREF",51,17,15.5,30.6,"Others",41.003143364767,"MEDIUM","LOW_STRAT"
"85","160321_1405",2,"subjects",1,1,6,"0","0",2,28.2,39.2090395480226,"56","25","0",19,17,28.2,0,0,0.5,0,8.895e+15,8.895e+15,0,0,55,125,0,"220","Others",1,1,200,1,5,26,0,2977777777777770,"0.6666666666666666",0.976271186440678,8,0,55,0,10,20,30,40,50,60,70,80,90,100,110,120,126,155,126,26,45,98,21,140,-14,49,53,"7223809523809520",31720,4353780952380950,77000,100,"6776190476190470",100,"2176890476190470",0.547840996409361,70,140,125,55,"220",2,26,58,2977777777777770,3777777777777770,0,0,2502777777777770,"0.9762711864406779",19,"Homme","Economie et Gestion, Math-Eco","Licence 1","Francaise","5 (Facile)","ne pas participer beaucoup a la cagnotte","",NA,"comme moi",6,2,25,"14",1,0,5.66666650772095,10.472222328186,2,9.52777767181396,2,0,2,0.416666656732559,0,0,10.3541669845581,8.06666660308838,3,0,0,-3.5,15,5,5,15,0,1,31.5630893707275,39.2090377807617,5,2,72.2380981445312,0,3,1,0,1,3,3,9.00925922393799,"STRAT",17,5.66666666666667,7.5,28.2,"grouptype_is_mixed",35.1964846202134,"LOW","LOW_STRAT"
"86","160324_1558",0,"subjects",1,9,3,"0","0",10,28,53.7098672045722,"0","26","0",24,30,28,13,NA,NA,NA,14885,14885,2,200,180,380,0,"248","CondCoop",NA,1,200,2,5,46,0,28,"0.6666666666666666",0.544629349470499,1,0,180,0,0,0,0,10,10,10,30,30,20,40,50,60,60,60,70,80,80,90,100,200,-91,39,-20,"4761904761904760",52800,455809523809524,77000,100,"1523809523809520",100,"227904761904762",0.891244499118241,200,200,380,180,"248",5,46,86,28,18,0,0,2927777777777770,"0.5446293494704992",19,"Femme","Economie et Gestion, Math-Eco","Licence 2","Autre Non-Européenne","3","Au debut j'ai essayé de verser 15 ou meme 20, mais quand j'ai vu que les partenaires dans ma groupe choisit de 0 à 6, j'ai pas d'autre choix que ne pas verser d'argent.","",NA,"Mal",7,7,153,"51",NA,1,10,9.54166698455811,12.4399995803833,9.95652198791504,1,1,2,0.666666686534882,1,2,10.3541669845581,10.5614032745361,3,0,0,-8,20,0,10,20,1,1,6.66666650772095,53.7098655700684,7,3,47.6190490722656,0,1,0,0,0,3,2,9.00925922393799,"RAND",30,10,10,28,"grouptype_is_mixed",34.9918753852188,"LOW","LOW_STRAT"
"87","160324_1558",0,"subjects",1,21,7,"0","0",10,23.2,43.2879475542108,"0","39","0",21,22,23.2,10,NA,NA,NA,23.08,23.08,0,0,0,380,0,"428","Freerider",NA,1,200,2,5,33,0,2511111111111110,"0.6666666666666666",0.898638426626324,1,0,0,0,0,0,0,0,0,0,0,0,0,0,0,0,0,0,0,0,0,0,0,0,11,19,88,"0",0,0,77000,100,"0",100,"0",0,380,0,380,0,"428",6,33,75,2511111111111110,7888888888888890,0,0,2927777777777770,"0.8986384266263237",20,"Homme","Economie et Gestion, Math-Eco","Licence 3","Francaise","3","jouer 20 si les autres jouent aussi 20","",NA,"comme moi",7,7,165,"55",NA,0,7.33333349227905,9.54166698455811,3.91666674613953,9.15999984741211,1,0,1,0.494791656732559,0,1,9.17777824401855,9.89583301544189,3,0,0,10,12,5,7,12,1,1,17.7777786254883,47.2281074523926,5,2,0,1,2,1,0,0,3,3,9.00925922393799,"RAND",22,7.33333333333333,6,23.2,"grouptype_is_mixed",36.097943631983,"LOW","LOW_STRAT"
"88","160323_1557",1,"subjects",1,9,2,"0","0",5,33,63.7720377203772,"74","17","0",9,30,33,15,NA,NA,NA,18215,18215,2,200,0,60,0,"236","Freerider",0,1,200,5,5,0,100,20,"0.6666666666666666",0.24649446494465,6,0,0,0,0,0,0,0,0,0,0,0,0,0,0,0,0,0,0,0,0,0,0,0,-3,-5,71,"0",0,0,77000,100,"0",100,"0",0,70,0,60,0,"236",3,0,-1,20,20,1,100,2836111111111110,"0.2464944649446497",20,"Homme","Economie et Gestion, Math-Eco","Licence 3","Francaise","2","mettre toujours inferieur a la moyenne deux autres participant en pariant sur le fait qu'il allaient jouer des sommes élévées","",NA,"j'ai pensé que comme la somme des jetons étais connue ils allaient mettre souvent au dessus de 15 jeton pour que tous le monde face pareille et augmente la somme de nos gains",3,6,129,"42",0,0,10,9.20833301544189,4.83333349227905,10.2702703475952,0,0,0,0.828125,1,2,7.85416650772095,10.5614032745361,3,0,0,5,25,5,5,25,1,1,21.0824108123779,77.0561676025391,9,4,0,1,1,3,1,0,3,3,9.00925922393799,"PREF",30,10,12.5,33,"Freerider",53.9702063687304,"HIGH","HIGH_STRAT"
"89","160324_1558",0,"subjects",1,17,6,"0","0",10,22,31.5784165405951,"-31","-64","0",18,20,22,2,NA,NA,NA,15485,15485,0,0,100,330,0,"298","CondCoop",NA,1,200,1,5,20,0,2377777777777770,"0.6666666666666666",0.747352496217852,6,0,100,0,0,0,0,0,0,50,100,100,100,100,100,100,100,140,150,160,170,180,190,200,-37,33,37,"9238095238095230",84100,9838095238095230,77000,100,"1076190476190470",100,"4919047619047610",0.966262492876283,400,200,330,100,"298",3,20,81,2377777777777770,3777777777777770,0,0,2927777777777770,"0.7473524962178519",21,"Homme","Economie et Gestion, Math-Eco","Licence 2","Autre Non-Européenne","3","je donne chaque fois 10","",NA,"je pense qu'il donne moins 5",8,7,161,"54",NA,0,6.66666650772095,9.54166698455811,12.4399995803833,9.15999984741211,0,1,1,0.286458343267441,0,1,9.17777824401855,9.89583301544189,3,0,0,0,10,0,10,10,1,1,21.1901168823242,72.1129608154297,3,2,92.3809509277344,0,2,1,0,0,3,2,9.00925922393799,"RAND",20,6.66666666666667,5,22,"grouptype_is_mixed",41.6271642292822,"MEDIUM","LOW_STRAT"
"90","160323_1352",1,"subjects",1,17,6,"0","0",20,18,60.6567701304543,"76","46","0",19,30,18,11,NA,NA,NA,12645,12645,2,200,100,390,0,"334","Others",0,1,200,2,5,35,0,1555555555555550,"0.6666666666666666",0.753036437246964,3,0,100,0,20,20,80,80,80,80,80,80,100,100,0,0,0,0,0,0,0,0,0,0,-132,-43,-6,"3428571428571420",-26000,345142857142857,77000,100,"-3428571428571420",100,"1725714285714280",-0.504345953148784,200,0,390,100,"334",5,35,80,1555555555555550,1944444444444440,0,0,2483333333333330,"0.7530364372469636",23,"Homme","Sciences dures (Mathématiques, Chimie, Biologie, Physique, Informatique)","Master 1","Francaise","5 (Facile)","Montrer d'abord que je suis pret à mettre une certaine somme de jeton dans la contribution et ensuite arreter de contribuer","",NA,"Je pensais que les autres allaient un peu plus contribuer a la cagnotte. Malheureusement ce n'a pas été le cas...",5,5,113,"38",0,0,10,9.20833301544189,11.6666669845581,10.2702703475952,0,0,0,0.786458313465118,1,2,7.85416650772095,10.5614032745361,3,0,0,20,10,0,10,10,1,1,40.0539817810059,60.6567687988281,8,4,34.2857131958008,0,1,0,0,0,4,3,9.00925922393799,"PREF",30,10,5,18,"Others",48.349077822762,"MEDIUM","HIGH_STRAT"
